pos,corr_resp,trials.thisRepN,trials.thisTrialN,trials.thisN,trials.thisIndex,trials_2.thisRepN,trials_2.thisTrialN,trials_2.thisN,trials_2.thisIndex,fixation.started,line1.started,line2.started,line3.started,line4.started,fixation.stopped,probe.started,key_resp.started,key_resp.keys,key_resp.corr,key_resp.rt,key_resp.duration,participant,session,date,expName,psychopyVersion,frameRate,
-50,x,0,0,0,0,,,,,6.548077166022267,7.54436650002026,7.54436650002026,7.54436650002026,7.54436650002026,7.560836625023512,8.544117416022345,8.544117416022345,x,1,1.019728083978407,None,412603,001,2023-10-17_16h54.22.548,sequential_learning_exp,2023.1.3,60.33152146403869,
150,v,0,1,1,1,,,,,9.627636208024342,10.611599916010164,10.611599916010164,10.611599916010164,10.611599916010164,10.627426166000078,11.62717658301699,11.62717658301699,v,1,0.7535837500181515,None,412603,001,2023-10-17_16h54.22.548,sequential_learning_exp,2023.1.3,60.33152146403869,
50,c,0,2,2,2,,,,,12.410839999996824,13.394552041019779,13.394552041019779,13.394552041019779,13.394552041019779,13.411019999999553,14.41105975001119,14.41105975001119,c,1,0.7598258750222158,None,412603,001,2023-10-17_16h54.22.548,sequential_learning_exp,2023.1.3,60.33152146403869,
-150,z,0,3,3,3,,,,,15.193707375001395,16.19427854102105,16.19427854102105,16.19427854102105,16.19427854102105,16.19427854102105,17.194260791002307,17.194260791002307,z,1,0.4009474170161411,None,412603,001,2023-10-17_16h54.22.548,sequential_learning_exp,2023.1.3,60.33152146403869,
-50,x,1,0,4,0,,,,,17.627483125019353,18.627786124998238,18.627786124998238,18.627786124998238,18.627786124998238,18.627786124998238,19.610978666023584,19.610978666023584,x,1,0.26814883400220424,None,412603,001,2023-10-17_16h54.22.548,sequential_learning_exp,2023.1.3,60.33152146403869,
150,v,1,1,5,1,,,,,19.91173950000666,20.89455970801646,20.89455970801646,20.89455970801646,20.89455970801646,20.912036791007267,21.89433954100241,21.89433954100241,v,1,0.09044283302500844,None,412603,001,2023-10-17_16h54.22.548,sequential_learning_exp,2023.1.3,60.33152146403869,
50,c,1,2,6,2,,,,,22.011117415997433,23.01200141600566,23.01200141600566,23.01200141600566,23.01200141600566,23.01200141600566,23.99530920802499,23.99530920802499,c,1,0.26699491700856015,None,412603,001,2023-10-17_16h54.22.548,sequential_learning_exp,2023.1.3,60.33152146403869,
-150,z,1,3,7,3,,,,,24.29438466602005,25.294394958007615,25.294394958007615,25.294394958007615,25.294394958007615,25.294394958007615,26.27939854102442,26.27939854102442,z,1,0.15259820900973864,None,412603,001,2023-10-17_16h54.22.548,sequential_learning_exp,2023.1.3,60.33152146403869,
-50,x,2,0,8,0,,,,,26.461094250000315,27.461415249999845,27.461415249999845,27.461415249999845,27.461415249999845,27.461415249999845,28.461006708006607,28.461006708006607,x,1,0.30730275000678375,None,412603,001,2023-10-17_16h54.22.548,sequential_learning_exp,2023.1.3,60.33152146403869,
150,v,2,1,9,1,,,,,28.7944585000223,29.778287499997532,29.778287499997532,29.778287499997532,29.778287499997532,29.794638666004175,30.777986916014925,30.777986916014925,v,1,0.25673237501177937,None,412603,001,2023-10-17_16h54.22.548,sequential_learning_exp,2023.1.3,60.33152146403869,
50,c,2,2,10,2,,,,,31.061271666025277,32.0446365410171,32.0446365410171,32.0446365410171,32.0446365410171,32.06128187500872,33.04500741601805,33.04500741601805,c,1,0.24378666700795293,None,412603,001,2023-10-17_16h54.22.548,sequential_learning_exp,2023.1.3,60.33152146403869,
-150,z,2,3,11,3,,,,,33.310955916007515,34.31230112499907,34.31230112499907,34.31230112499907,34.31230112499907,34.31230112499907,35.31165925000096,35.31165925000096,z,1,0.2897456669888925,None,412603,001,2023-10-17_16h54.22.548,sequential_learning_exp,2023.1.3,60.33152146403869,
-50,x,3,0,12,0,,,,,35.628177125006914,36.6286542910093,36.6286542910093,36.6286542910093,36.6286542910093,36.6286542910093,37.628260708006565,37.628260708006565,x,1,0.25867783298599534,None,412603,001,2023-10-17_16h54.22.548,sequential_learning_exp,2023.1.3,60.33152146403869,
150,v,3,1,13,1,,,,,37.91156208299799,38.911577375023626,38.911577375023626,38.911577375023626,38.911577375023626,38.911577375023626,39.89510970801348,39.89510970801348,v,1,0.24760937498649582,None,412603,001,2023-10-17_16h54.22.548,sequential_learning_exp,2023.1.3,60.33152146403869,
50,c,3,2,14,2,,,,,40.16183004100458,41.161769791011466,41.161769791011466,41.161769791011466,41.161769791011466,41.161769791011466,42.144943291001255,42.144943291001255,c,1,0.3300413330143783,None,412603,001,2023-10-17_16h54.22.548,sequential_learning_exp,2023.1.3,60.33152146403869,
-150,z,3,3,15,3,,,,,42.494884708023164,43.495370916003594,43.495370916003594,43.495370916003594,43.495370916003594,43.495370916003594,44.4782564160123,44.4782564160123,z,1,0.29832775000249967,None,412603,001,2023-10-17_16h54.22.548,sequential_learning_exp,2023.1.3,60.33152146403869,
-50,x,4,0,16,0,,,,,44.79515479100519,45.778517375001684,45.778517375001684,45.778517375001684,45.778517375001684,45.795201000000816,46.778627416002564,46.778627416002564,x,1,0.2819037919980474,None,412603,001,2023-10-17_16h54.22.548,sequential_learning_exp,2023.1.3,60.33152146403869,
150,v,4,1,17,1,,,,,47.07874366600299,48.06224666599883,48.06224666599883,48.06224666599883,48.06224666599883,48.07893395802239,49.078821833012626,49.078821833012626,v,1,0.2485489169775974,None,412603,001,2023-10-17_16h54.22.548,sequential_learning_exp,2023.1.3,60.33152146403869,
50,c,4,2,18,2,,,,,49.34529029100668,50.32885625000927,50.32885625000927,50.32885625000927,50.32885625000927,50.345543833012925,51.32911037502345,51.32911037502345,c,1,0.5648120419937186,None,412603,001,2023-10-17_16h54.22.548,sequential_learning_exp,2023.1.3,60.33152146403869,
-150,z,4,3,19,3,,,,,51.91218970800401,52.89563470802386,52.89563470802386,52.89563470802386,52.89563470802386,52.91232629099977,53.895839583012275,53.895839583012275,z,1,0.32416166699840687,None,412603,001,2023-10-17_16h54.22.548,sequential_learning_exp,2023.1.3,60.33152146403869,
-50,x,5,0,20,0,,,,,54.24529587500729,55.228982708009426,55.228982708009426,55.228982708009426,55.228982708009426,55.24552237501484,56.245470458001364,56.245470458001364,x,1,0.27456187500501983,None,412603,001,2023-10-17_16h54.22.548,sequential_learning_exp,2023.1.3,60.33152146403869,
150,v,5,1,21,1,,,,,56.54537262499798,57.52885779101052,57.52885779101052,57.52885779101052,57.52885779101052,57.54604666601517,58.529336041014176,58.529336041014176,v,1,0.8785255829861853,0.0036095830146223307,412603,001,2023-10-17_16h54.22.548,sequential_learning_exp,2023.1.3,60.33152146403869,
50,c,5,2,22,2,,,,,59.428432833025,60.42926958302269,60.42926958302269,60.42926958302269,60.42926958302269,60.42926958302269,61.42902487501851,61.42902487501851,c,1,0.32699187501566485,None,412603,001,2023-10-17_16h54.22.548,sequential_learning_exp,2023.1.3,60.33152146403869,
-150,z,5,3,23,3,,,,,61.77906054101186,62.76262512500398,62.76262512500398,62.76262512500398,62.76262512500398,62.77927287502098,63.7793544580054,63.7793544580054,z,1,0.3046672090131324,None,412603,001,2023-10-17_16h54.22.548,sequential_learning_exp,2023.1.3,60.33152146403869,
-50,x,6,0,24,0,,,,,64.11233025000547,65.1128790829971,65.1128790829971,65.1128790829971,65.1128790829971,65.1128790829971,66.11253829102498,66.11253829102498,x,1,0.26650004100520164,None,412603,001,2023-10-17_16h54.22.548,sequential_learning_exp,2023.1.3,60.33152146403869,
150,v,6,1,25,1,,,,,66.3959100000211,67.37973995800712,67.37973995800712,67.37973995800712,67.37973995800712,67.3968304580194,68.37912537500961,68.37912537500961,v,1,0.2816917920135893,None,412603,001,2023-10-17_16h54.22.548,sequential_learning_exp,2023.1.3,60.33152146403869,
50,c,6,2,26,2,,,,,68.67936791601824,69.6628409580153,69.6628409580153,69.6628409580153,69.6628409580153,69.67980275000446,70.66262429099879,70.66262429099879,c,1,0.6929930420010351,None,412603,001,2023-10-17_16h54.22.548,sequential_learning_exp,2023.1.3,60.33152146403869,
-150,z,6,3,27,3,,,,,71.3790508750244,72.37930850000703,72.37930850000703,72.37930850000703,72.37930850000703,72.37930850000703,73.37916808301816,73.37916808301816,z,1,0.693259042018326,None,412603,001,2023-10-17_16h54.22.548,sequential_learning_exp,2023.1.3,60.33152146403869,
-50,x,7,0,28,0,,,,,74.09617487501237,75.07947825000156,75.07947825000156,75.07947825000156,75.07947825000156,75.09639470800175,76.07947516601416,76.07947516601416,x,1,0.5957581670081709,None,412603,001,2023-10-17_16h54.22.548,sequential_learning_exp,2023.1.3,60.33152146403869,
150,v,7,1,29,1,,,,,76.69621966601699,77.67990316601936,77.67990316601936,77.67990316601936,77.67990316601936,77.6966170000087,78.69601183300256,78.69601183300256,v,1,0.3056827500113286,None,412603,001,2023-10-17_16h54.22.548,sequential_learning_exp,2023.1.3,60.33152146403869,
50,c,7,2,30,2,,,,,79.02950250002323,80.02980458299862,80.02980458299862,80.02980458299862,80.02980458299862,80.02980458299862,81.01317000002018,81.01317000002018,c,1,0.4124195000040345,None,412603,001,2023-10-17_16h54.22.548,sequential_learning_exp,2023.1.3,60.33152146403869,
-150,z,7,3,31,3,,,,,81.4460356660129,82.44672700000228,82.44672700000228,82.44672700000228,82.44672700000228,82.44672700000228,83.44627004102222,83.44627004102222,z,1,0.466612709016772,None,412603,001,2023-10-17_16h54.22.548,sequential_learning_exp,2023.1.3,60.33152146403869,
-50,x,8,0,32,0,,,,,83.92955333300051,84.91324500000337,84.91324500000337,84.91324500000337,84.91324500000337,84.92985941600637,85.9136083330086,85.9136083330086,x,1,0.45456983300391585,None,412603,001,2023-10-17_16h54.22.548,sequential_learning_exp,2023.1.3,60.33152146403869,
150,v,8,1,33,1,,,,,86.3965047080128,87.39642220802489,87.39642220802489,87.39642220802489,87.39642220802489,87.39642220802489,88.38007095802459,88.38007095802459,v,1,0.5117966250109021,None,412603,001,2023-10-17_16h54.22.548,sequential_learning_exp,2023.1.3,60.33152146403869,
50,c,8,2,34,2,,,,,88.9131251660001,89.8966220410075,89.8966220410075,89.8966220410075,89.8966220410075,89.91335625000647,90.89680620800937,90.89680620800937,c,1,0.7177547499886714,None,412603,001,2023-10-17_16h54.22.548,sequential_learning_exp,2023.1.3,60.33152146403869,
-150,z,8,3,35,3,,,,,91.64632966602221,92.64735600000131,92.64735600000131,92.64735600000131,92.64735600000131,92.64735600000131,93.63014900000417,93.63014900000417,z,1,0.5367815830104519,None,412603,001,2023-10-17_16h54.22.548,sequential_learning_exp,2023.1.3,60.33152146403869,
-50,x,9,0,36,0,,,,,94.19646329100942,95.18008099999861,95.18008099999861,95.18008099999861,95.18008099999861,95.19705691601848,96.19656766601838,96.19656766601838,x,1,0.48687695898115635,None,412603,001,2023-10-17_16h54.22.548,sequential_learning_exp,2023.1.3,60.33152146403869,
150,v,9,1,37,1,,,,,96.71304770800634,97.714199250011,97.714199250011,97.714199250011,97.714199250011,97.714199250011,98.71374612502404,98.71374612502404,v,1,0.4586688330164179,None,412603,001,2023-10-17_16h54.22.548,sequential_learning_exp,2023.1.3,60.33152146403869,
50,c,9,2,38,2,,,,,99.19688625002163,100.1804580410244,100.1804580410244,100.1804580410244,100.1804580410244,100.19733900000574,101.19665387499845,101.19665387499845,c,1,0.5996688330196775,None,412603,001,2023-10-17_16h54.22.548,sequential_learning_exp,2023.1.3,60.33152146403869,
-150,z,9,3,39,3,,,,,101.81371750001563,102.79730216600001,102.79730216600001,102.79730216600001,102.79730216600001,102.81402887500008,103.81372991600074,103.81372991600074,z,1,0.24614270802703686,None,412603,001,2023-10-17_16h54.22.548,sequential_learning_exp,2023.1.3,60.33152146403869,
-50,x,10,0,40,0,,,,,104.08020475000376,105.08058741601417,105.08058741601417,105.08058741601417,105.08058741601417,105.08058741601417,106.06361287500476,106.06361287500476,x,1,0.47174037498189136,None,412603,001,2023-10-17_16h54.22.548,sequential_learning_exp,2023.1.3,60.33152146403869,
150,v,10,1,41,1,,,,,106.5638047910179,107.5642086250009,107.5642086250009,107.5642086250009,107.5642086250009,107.5642086250009,108.54719316601404,108.54719316601404,v,1,0.26599270800943486,None,412603,001,2023-10-17_16h54.22.548,sequential_learning_exp,2023.1.3,60.33152146403869,
50,c,10,2,42,2,,,,,108.83027875001426,109.83056891601882,109.83056891601882,109.83056891601882,109.83056891601882,109.83056891601882,110.81406783300918,110.81406783300918,c,1,0.3993834579887334,None,412603,001,2023-10-17_16h54.22.548,sequential_learning_exp,2023.1.3,60.33152146403869,
-150,z,10,3,43,3,,,,,111.23056291602552,112.21583054101211,112.21583054101211,112.21583054101211,112.21583054101211,112.23100166601944,113.23068416601745,113.23068416601745,z,1,0.6247870420047548,None,412603,001,2023-10-17_16h54.22.548,sequential_learning_exp,2023.1.3,60.33152146403869,
-50,x,11,0,44,0,,,,,113.8807948330068,114.88118258301984,114.88118258301984,114.88118258301984,114.88118258301984,114.88118258301984,115.88075441602268,115.88075441602268,x,1,0.7932817919936497,None,412603,001,2023-10-17_16h54.22.548,sequential_learning_exp,2023.1.3,60.33152146403869,
150,v,11,1,45,1,,,,,116.69707008299883,117.68063233300927,117.68063233300927,117.68063233300927,117.68063233300927,117.69748608302325,118.68092687500757,118.68092687500757,v,1,0.594671916012885,None,412603,001,2023-10-17_16h54.22.548,sequential_learning_exp,2023.1.3,60.33152146403869,
50,c,11,2,46,2,,,,,119.2970397080062,120.28095591600868,120.28095591600868,120.28095591600868,120.28095591600868,120.29763329101843,121.29808487501577,121.29808487501577,c,1,0.9395834579772782,None,412603,001,2023-10-17_16h54.22.548,sequential_learning_exp,2023.1.3,60.33152146403869,
-150,z,11,3,47,3,,,,,122.26419250000617,123.24742904101731,123.24742904101731,123.24742904101731,123.24742904101731,123.26473983301548,124.24764737501391,124.24764737501391,z,1,0.38487762497970834,None,412603,001,2023-10-17_16h54.22.548,sequential_learning_exp,2023.1.3,60.33152146403869,
-50,x,12,0,48,0,,,,,124.66430645799846,125.64766875002533,125.64766875002533,125.64766875002533,125.64766875002533,125.66484404102084,126.66415070800576,126.66415070800576,x,1,0.5260686670080759,None,412603,001,2023-10-17_16h54.22.548,sequential_learning_exp,2023.1.3,60.33152146403869,
150,v,12,1,49,1,,,,,127.2143997910025,128.19789408301585,128.19789408301585,128.19789408301585,128.19789408301585,128.21465662500123,129.1979093750124,129.1979093750124,v,1,0.34348716601380147,None,412603,001,2023-10-17_16h54.22.548,sequential_learning_exp,2023.1.3,60.33152146403869,
50,c,12,2,50,2,,,,,129.56436208300875,130.5480535000097,130.5480535000097,130.5480535000097,130.5480535000097,130.56484454101883,131.54752304102294,131.54752304102294,c,1,0.3835272080032155,None,412603,001,2023-10-17_16h54.22.548,sequential_learning_exp,2023.1.3,60.33152146403869,
-150,z,12,3,51,3,,,,,131.9478252910194,132.93169825000223,132.93169825000223,132.93169825000223,132.93169825000223,132.94824483300908,133.9312730829988,133.9312730829988,x,0,0.3353573330095969,None,412603,001,2023-10-17_16h54.22.548,sequential_learning_exp,2023.1.3,60.33152146403869,
-50,x,13,0,52,0,,,,,134.29776445802418,135.29821529099718,135.29821529099718,135.29821529099718,135.29821529099718,135.29821529099718,136.28131445799954,136.28131445799954,x,1,1.0582510830136016,None,412603,001,2023-10-17_16h54.22.548,sequential_learning_exp,2023.1.3,60.33152146403869,
150,v,13,1,53,1,,,,,137.3647451660072,138.36534695801674,138.36534695801674,138.36534695801674,138.36534695801674,138.36534695801674,139.3646150410059,139.3646150410059,v,1,0.6536900420032907,None,412603,001,2023-10-17_16h54.22.548,sequential_learning_exp,2023.1.3,60.33152146403869,
50,c,13,2,54,2,,,,,140.04793325002538,141.04849304101663,141.04849304101663,141.04849304101663,141.04849304101663,141.04849304101663,142.0480897500238,142.0480897500238,c,1,0.8337265830195975,None,412603,001,2023-10-17_16h54.22.548,sequential_learning_exp,2023.1.3,60.33152146403869,
-150,z,13,3,55,3,,,,,142.89838025000063,143.89847300000838,143.89847300000838,143.89847300000838,143.89847300000838,143.89847300000838,144.89805804099888,144.89805804099888,z,1,0.4370419589977246,None,412603,001,2023-10-17_16h54.22.548,sequential_learning_exp,2023.1.3,60.33152146403869,
-50,x,14,0,56,0,,,,,145.3649635000038,146.3652373329969,146.3652373329969,146.3652373329969,146.3652373329969,146.3652373329969,147.364827833022,147.364827833022,x,1,0.4989539579837583,None,412603,001,2023-10-17_16h54.22.548,sequential_learning_exp,2023.1.3,60.33152146403869,
150,v,14,1,57,1,,,,,147.88164475001395,148.86539945800905,148.86539945800905,148.86539945800905,148.86539945800905,148.88203975002398,149.86487833299907,149.86487833299907,v,1,0.6159488749981392,None,412603,001,2023-10-17_16h54.22.548,sequential_learning_exp,2023.1.3,60.33152146403869,
50,c,14,2,58,2,,,,,150.4987286250107,151.49852420800016,151.49852420800016,151.49852420800016,151.49852420800016,151.49852420800016,152.49850795802195,152.49850795802195,c,1,0.7275877920037601,None,412603,001,2023-10-17_16h54.22.548,sequential_learning_exp,2023.1.3,60.33152146403869,
-150,z,14,3,59,3,,,,,153.24901508301264,154.23268633300904,154.23268633300904,154.23268633300904,154.23268633300904,154.24876054099877,155.2320061250066,155.2320061250066,z,1,0.38502600000356324,None,412603,001,2023-10-17_16h54.22.548,sequential_learning_exp,2023.1.3,60.33152146403869,
-50,x,15,0,60,0,,,,,155.64839583300636,156.6490409580001,156.6490409580001,156.6490409580001,156.6490409580001,156.6490409580001,157.64853612502338,157.64853612502338,x,1,0.41721591699752025,None,412603,001,2023-10-17_16h54.22.548,sequential_learning_exp,2023.1.3,60.33152146403869,
150,v,15,1,61,1,,,,,158.09815095801605,159.09875433301204,159.09875433301204,159.09875433301204,159.09875433301204,159.09875433301204,160.08195791600156,160.08195791600156,v,1,0.5508389160095248,None,412603,001,2023-10-17_16h54.22.548,sequential_learning_exp,2023.1.3,60.33152146403869,
50,c,15,2,62,2,,,,,160.66548275001696,161.64883908300544,161.64883908300544,161.64883908300544,161.64883908300544,161.6658047500241,162.66529187501874,162.66529187501874,x,0,0.2685896669863723,None,412603,001,2023-10-17_16h54.22.548,sequential_learning_exp,2023.1.3,60.33152146403869,
-150,z,15,3,63,3,,,,,162.94868195801973,163.94886437500827,163.94886437500827,163.94886437500827,163.94886437500827,163.94886437500827,164.94875366601627,164.94875366601627,z,1,0.5675947919953614,None,412603,001,2023-10-17_16h54.22.548,sequential_learning_exp,2023.1.3,60.33152146403869,
-50,x,16,0,64,0,,,,,165.54839966600412,166.548818958021,166.548818958021,166.548818958021,166.548818958021,166.548818958021,167.54892304100213,167.54892304100213,x,1,0.6703761660028249,None,412603,001,2023-10-17_16h54.22.548,sequential_learning_exp,2023.1.3,60.33152146403869,
150,v,16,1,65,1,,,,,168.2488967080135,169.2326823330077,169.2326823330077,169.2326823330077,169.2326823330077,169.24944483302534,170.2321304580255,170.2321304580255,v,1,0.3355157090118155,None,412603,001,2023-10-17_16h54.22.548,sequential_learning_exp,2023.1.3,60.33152146403869,
50,c,16,2,66,2,,,,,170.5988231660158,171.59910558300908,171.59910558300908,171.59910558300908,171.59910558300908,171.59910558300908,172.5825892080029,172.5825892080029,c,1,0.5918039589887485,None,412603,001,2023-10-17_16h54.22.548,sequential_learning_exp,2023.1.3,60.33152146403869,
-150,z,16,3,67,3,,,,,173.19905495800776,174.19921062502544,174.19921062502544,174.19921062502544,174.19921062502544,174.19921062502544,175.20007137500215,175.20007137500215,z,1,0.42724887499934994,None,412603,001,2023-10-17_16h54.22.548,sequential_learning_exp,2023.1.3,60.33152146403869,
-50,x,17,0,68,0,,,,,175.64907133299857,176.63263487501536,176.63263487501536,176.63263487501536,176.63263487501536,176.6495350410114,177.63257158300257,177.63257158300257,x,1,0.5936706670036074,None,412603,001,2023-10-17_16h54.22.548,sequential_learning_exp,2023.1.3,60.33152146403869,
150,v,17,1,69,1,,,,,178.24904941601562,179.23255454099854,179.23255454099854,179.23255454099854,179.23255454099854,179.2494072499976,180.23257129100966,180.23257129100966,v,1,0.3895912090083584,None,412603,001,2023-10-17_16h54.22.548,sequential_learning_exp,2023.1.3,60.33152146403869,
50,c,17,2,70,2,,,,,180.6492900000012,181.64975304101245,181.64975304101245,181.64975304101245,181.64975304101245,181.64975304101245,182.63256983301835,182.63256983301835,c,1,0.6295967089827172,None,412603,001,2023-10-17_16h54.22.548,sequential_learning_exp,2023.1.3,60.33152146403869,
-150,z,17,3,71,3,,,,,183.2825552500144,184.2828790830099,184.2828790830099,184.2828790830099,184.2828790830099,184.2828790830099,185.26762512500864,185.26762512500864,z,1,0.4605985830130521,None,412603,001,2023-10-17_16h54.22.548,sequential_learning_exp,2023.1.3,60.33152146403869,
-50,x,18,0,72,0,,,,,185.7493347080017,186.74945550001576,186.74945550001576,186.74945550001576,186.74945550001576,186.74945550001576,187.749651250022,187.749651250022,x,1,0.3461406670103315,None,412603,001,2023-10-17_16h54.22.548,sequential_learning_exp,2023.1.3,60.33152146403869,
150,v,18,1,73,1,,,,,188.11608100001467,189.11633420802536,189.11633420802536,189.11633420802536,189.11633420802536,189.11633420802536,190.0999832500238,190.0999832500238,v,1,0.5667332080192864,None,412603,001,2023-10-17_16h54.22.548,sequential_learning_exp,2023.1.3,60.33152146403869,
50,c,18,2,74,2,,,,,190.69955658301478,191.69998725000187,191.69998725000187,191.69998725000187,191.69998725000187,191.69998725000187,192.68317987502087,192.68317987502087,c,1,0.5310695840162225,None,412603,001,2023-10-17_16h54.22.548,sequential_learning_exp,2023.1.3,60.33152146403869,
-150,z,18,3,75,3,,,,,193.23311304100207,194.23314937500982,194.23314937500982,194.23314937500982,194.23314937500982,194.23314937500982,195.23279750000802,195.23279750000802,z,1,0.5254453750094399,None,412603,001,2023-10-17_16h54.22.548,sequential_learning_exp,2023.1.3,60.33152146403869,
-50,x,19,0,76,0,,,,,195.78304650000064,196.7840328750026,196.7840328750026,196.7840328750026,196.7840328750026,196.7840328750026,197.76680925002438,197.76680925002438,x,1,0.43292991700582206,None,412603,001,2023-10-17_16h54.22.548,sequential_learning_exp,2023.1.3,60.33152146403869,
150,v,19,1,77,1,,,,,198.21670316602103,199.20070933300303,199.20070933300303,199.20070933300303,199.20070933300303,199.2175502910104,200.2001924580254,200.2001924580254,v,1,1.0000544170034118,None,412603,001,2023-10-17_16h54.22.548,sequential_learning_exp,2023.1.3,60.33152146403869,
50,c,19,2,78,2,,,,,201.21700045801117,202.20142420800403,202.20142420800403,202.20142420800403,202.20142420800403,202.21776175001287,203.2165569580102,203.2165569580102,c,1,0.40780879199155606,None,412603,001,2023-10-17_16h54.22.548,sequential_learning_exp,2023.1.3,60.33152146403869,
-150,z,19,3,79,3,,,,,203.64949166600127,204.63348475002567,204.63348475002567,204.63348475002567,204.63348475002567,204.6503766250098,205.63356695801485,205.63356695801485,z,1,0.6101828330138233,None,412603,001,2023-10-17_16h54.22.548,sequential_learning_exp,2023.1.3,60.33152146403869,
-50,x,20,0,80,0,,,,,206.26658495800802,207.2669617080246,207.2669617080246,207.2669617080246,207.2669617080246,207.2669617080246,208.26702183301677,208.26702183301677,x,1,0.43802716600475833,None,412603,001,2023-10-17_16h54.22.548,sequential_learning_exp,2023.1.3,60.33152146403869,
150,v,20,1,81,1,,,,,208.73310037501506,209.73386850001407,209.73386850001407,209.73386850001407,209.73386850001407,209.73386850001407,210.71661387500353,210.71661387500353,v,1,0.705223916011164,None,412603,001,2023-10-17_16h54.22.548,sequential_learning_exp,2023.1.3,60.33152146403869,
50,c,20,2,82,2,,,,,211.4503525000182,212.4510640410008,212.4510640410008,212.4510640410008,212.4510640410008,212.4510640410008,213.43352295801742,213.43352295801742,c,1,0.34858066600281745,None,412603,001,2023-10-17_16h54.22.548,sequential_learning_exp,2023.1.3,60.33152146403869,
-150,z,20,3,83,3,,,,,213.80033816600917,214.78384470799938,214.78384470799938,214.78384470799938,214.78384470799938,214.8005215410085,215.78425741600222,215.78425741600222,z,1,0.45572500000707805,None,412603,001,2023-10-17_16h54.22.548,sequential_learning_exp,2023.1.3,60.33152146403869,
-50,x,21,0,84,0,,,,,216.26704400000744,217.250894583005,217.250894583005,217.250894583005,217.250894583005,217.26765300001716,218.26734537500306,218.26734537500306,x,1,0.4756657090038061,None,412603,001,2023-10-17_16h54.22.548,sequential_learning_exp,2023.1.3,60.33152146403869,
150,v,21,1,85,1,,,,,218.76741166602005,219.7509661250224,219.7509661250224,219.7509661250224,219.7509661250224,219.76756175002083,220.75095587500255,220.75095587500255,v,1,0.5412789169931784,None,412603,001,2023-10-17_16h54.22.548,sequential_learning_exp,2023.1.3,60.33152146403869,
50,c,21,2,86,2,,,,,221.3174781250127,222.3009602079983,222.3009602079983,222.3009602079983,222.3009602079983,222.31740637501935,223.30068054099684,223.30068054099684,c,1,1.285236708004959,None,412603,001,2023-10-17_16h54.22.548,sequential_learning_exp,2023.1.3,60.33152146403869,
-150,z,21,3,87,3,,,,,224.61718112500967,225.60126512500574,225.60126512500574,225.60126512500574,225.60126512500574,225.61805266601732,226.60107220802456,226.60107220802456,z,1,0.770266375009669,None,412603,001,2023-10-17_16h54.22.548,sequential_learning_exp,2023.1.3,60.33152146403869,
-50,x,22,0,88,0,,,,,227.40070908301277,228.3841102910228,228.3841102910228,228.3841102910228,228.3841102910228,228.40065137500642,229.3842185829999,229.3842185829999,x,1,0.5273453340050764,None,412603,001,2023-10-17_16h54.22.548,sequential_learning_exp,2023.1.3,60.33152146403869,
150,v,22,1,89,1,,,,,229.93410908299848,230.918068125,230.918068125,230.918068125,230.918068125,230.93516395799816,231.9178897080128,231.9178897080128,v,1,0.38538970798254013,None,412603,001,2023-10-17_16h54.22.548,sequential_learning_exp,2023.1.3,60.33152146403869,
50,c,22,2,90,2,,,,,232.33419558301102,233.317887333018,233.317887333018,233.317887333018,233.317887333018,233.33439041601378,234.31778208300238,234.31778208300238,c,1,0.6027340000146069,None,412603,001,2023-10-17_16h54.22.548,sequential_learning_exp,2023.1.3,60.33152146403869,
-150,z,22,3,91,3,,,,,234.95090858300682,235.9512047910248,235.9512047910248,235.9512047910248,235.9512047910248,235.9512047910248,236.95106408299762,236.95106408299762,z,1,0.5948249170032796,None,412603,001,2023-10-17_16h54.22.548,sequential_learning_exp,2023.1.3,60.33152146403869,
-50,x,23,0,92,0,,,,,237.56759262501146,238.551605708024,238.551605708024,238.551605708024,238.551605708024,238.56805508301477,239.56805133301532,239.56805133301532,x,1,0.45060325000667945,None,412603,001,2023-10-17_16h54.22.548,sequential_learning_exp,2023.1.3,60.33152146403869,
150,v,23,1,93,1,,,,,240.0510990000039,241.03536937502213,241.03536937502213,241.03536937502213,241.03536937502213,241.05235450001783,242.03490075000445,242.03490075000445,v,1,0.415280791989062,None,412603,001,2023-10-17_16h54.22.548,sequential_learning_exp,2023.1.3,60.33152146403869,
50,c,23,2,94,2,,,,,242.46787337501883,243.46790995800984,243.46790995800984,243.46790995800984,243.46790995800984,243.46790995800984,244.46782095800154,244.46782095800154,c,1,0.5445036250166595,None,412603,001,2023-10-17_16h54.22.548,sequential_learning_exp,2023.1.3,60.33152146403869,
-150,z,23,3,95,3,,,,,245.03489687500405,246.0183724160015,246.0183724160015,246.0183724160015,246.0183724160015,246.03556287501124,247.01801558301668,247.01801558301668,z,1,0.6658893749990966,None,412603,001,2023-10-17_16h54.22.548,sequential_learning_exp,2023.1.3,60.33152146403869,
-50,x,24,0,96,0,,,,,247.70093133300543,248.70233374999953,248.70233374999953,248.70233374999953,248.70233374999953,248.70233374999953,249.70147012500092,249.70147012500092,x,1,0.604157292022137,None,412603,001,2023-10-17_16h54.22.548,sequential_learning_exp,2023.1.3,60.33152146403869,
150,v,24,1,97,1,,,,,250.33494441601215,251.33593375000055,251.33593375000055,251.33593375000055,251.33593375000055,251.33593375000055,252.31884695802,252.31884695802,v,1,0.4236706250230782,None,412603,001,2023-10-17_16h54.22.548,sequential_learning_exp,2023.1.3,60.33152146403869,
50,c,24,2,98,2,,,,,252.76828829100123,253.75248337502126,253.75248337502126,253.75248337502126,253.75248337502126,253.76877208301448,254.76899916600087,254.76899916600087,c,1,0.41091700000106357,None,412603,001,2023-10-17_16h54.22.548,sequential_learning_exp,2023.1.3,60.33152146403869,
-150,z,24,3,99,3,,,,,255.20160545801627,256.1857050000108,256.1857050000108,256.1857050000108,256.1857050000108,256.2019687910215,257.1858124580176,257.1858124580176,z,1,0.5699244590068702,None,412603,001,2023-10-17_16h54.22.548,sequential_learning_exp,2023.1.3,60.33152146403869,
-50,x,25,0,100,0,,,,,257.7855335000204,258.78542483301135,258.78542483301135,258.78542483301135,258.78542483301135,258.78542483301135,259.7849115410063,259.7849115410063,x,1,0.38182883299305104,None,412603,001,2023-10-17_16h54.22.548,sequential_learning_exp,2023.1.3,60.33152146403869,
150,v,25,1,101,1,,,,,260.18505370800267,261.1850664160156,261.1850664160156,261.1850664160156,261.1850664160156,261.1850664160156,262.18585312500363,262.18585312500363,v,1,0.5273584999958985,None,412603,001,2023-10-17_16h54.22.548,sequential_learning_exp,2023.1.3,60.33152146403869,
50,c,25,2,102,2,,,,,262.73493116602185,263.73606929101516,263.73606929101516,263.73606929101516,263.73606929101516,263.73606929101516,264.7183401250222,264.7183401250222,c,1,0.629688500019256,None,412603,001,2023-10-17_16h54.22.548,sequential_learning_exp,2023.1.3,60.33152146403869,
-150,z,25,3,103,3,,,,,265.36858454102185,266.35245529102394,266.35245529102394,266.35245529102394,266.35245529102394,266.368835375004,267.3517187910038,267.3517187910038,z,1,0.8744837090198416,None,412603,001,2023-10-17_16h54.22.548,sequential_learning_exp,2023.1.3,60.33152146403869,
-50,x,26,0,104,0,,,,,268.2518515830161,269.23535462500877,269.23535462500877,269.23535462500877,269.23535462500877,269.2525207500148,270.2352753330197,270.2352753330197,x,1,0.5546602919930592,None,412603,001,2023-10-17_16h54.22.548,sequential_learning_exp,2023.1.3,60.33152146403869,
150,v,26,1,105,1,,,,,270.8186946250207,271.8025484580139,271.8025484580139,271.8025484580139,271.8025484580139,271.8193263330031,272.80289804100175,272.80289804100175,v,1,0.3992292500042822,None,412603,001,2023-10-17_16h54.22.548,sequential_learning_exp,2023.1.3,60.33152146403869,
50,c,26,2,106,2,,,,,273.21887900002184,274.21910108299926,274.21910108299926,274.21910108299926,274.21910108299926,274.21910108299926,275.2196188750095,275.2196188750095,c,1,0.440739042009227,None,412603,001,2023-10-17_16h54.22.548,sequential_learning_exp,2023.1.3,60.33152146403869,
-150,z,26,3,107,3,,,,,275.68563137500314,276.68561595800566,276.68561595800566,276.68561595800566,276.68561595800566,276.68561595800566,277.6688967500231,277.6688967500231,z,1,0.41791570899658836,None,412603,001,2023-10-17_16h54.22.548,sequential_learning_exp,2023.1.3,60.33152146403869,
-50,x,27,0,108,0,,,,,278.11892729101237,279.10283275000984,279.10283275000984,279.10283275000984,279.10283275000984,279.118983458,280.10368116601603,280.10368116601603,x,1,0.4307439999829512,None,412603,001,2023-10-17_16h54.22.548,sequential_learning_exp,2023.1.3,60.33152146403869,
150,v,27,1,109,1,,,,,280.55232608300867,281.55252654102514,281.55252654102514,281.55252654102514,281.55252654102514,281.55252654102514,282.53598516600323,282.53598516600323,v,1,0.5060891250032,None,412603,001,2023-10-17_16h54.22.548,sequential_learning_exp,2023.1.3,60.33152146403869,
50,c,27,2,110,2,,,,,283.06894458300667,284.05248612500145,284.05248612500145,284.05248612500145,284.05248612500145,284.06987691600807,285.0525535000197,285.0525535000197,c,1,0.3490679170063231,None,412603,001,2023-10-17_16h54.22.548,sequential_learning_exp,2023.1.3,60.33152146403869,
-150,z,27,3,111,3,,,,,285.41912004101323,286.419210166001,286.419210166001,286.419210166001,286.419210166001,286.419210166001,287.4026353750087,287.4026353750087,z,1,0.6008119589823764,None,412603,001,2023-10-17_16h54.22.548,sequential_learning_exp,2023.1.3,60.33152146403869,
-50,x,28,0,112,0,,,,,288.0202565829968,289.0201020830136,289.0201020830136,289.0201020830136,289.0201020830136,289.0201020830136,290.0193716250069,290.0193716250069,x,1,0.42413495801156387,None,412603,001,2023-10-17_16h54.22.548,sequential_learning_exp,2023.1.3,60.33152146403869,
150,v,28,1,113,1,,,,,290.46954316602205,291.46974120801315,291.46974120801315,291.46974120801315,291.46974120801315,291.46974120801315,292.453030958015,292.453030958015,v,1,0.5172584579850081,None,412603,001,2023-10-17_16h54.22.548,sequential_learning_exp,2023.1.3,60.33152146403869,
50,c,28,2,114,2,,,,,293.0034649580193,294.0036492080253,294.0036492080253,294.0036492080253,294.0036492080253,294.0036492080253,295.0037294580252,295.0037294580252,c,1,0.43073516598087735,None,412603,001,2023-10-17_16h54.22.548,sequential_learning_exp,2023.1.3,60.33152146403869,
-150,z,28,3,115,3,,,,,295.45278362501995,296.4370245000173,296.4370245000173,296.4370245000173,296.4370245000173,296.45319720800035,297.43629262500326,297.43629262500326,z,1,0.4685150829900522,None,412603,001,2023-10-17_16h54.22.548,sequential_learning_exp,2023.1.3,60.33152146403869,
-50,x,29,0,116,0,,,,,297.9366187080159,298.936170416011,298.936170416011,298.936170416011,298.936170416011,298.936170416011,299.93644258301356,299.93644258301356,x,1,0.45245212499867193,None,412603,001,2023-10-17_16h54.22.548,sequential_learning_exp,2023.1.3,60.33152146403869,
150,v,29,1,117,1,,,,,300.41918608301785,301.4044892080128,301.4044892080128,301.4044892080128,301.4044892080128,301.42001929102116,302.41999891601154,302.41999891601154,v,1,0.6797572920040693,None,412603,001,2023-10-17_16h54.22.548,sequential_learning_exp,2023.1.3,60.33152146403869,
50,c,29,2,118,2,,,,,303.1199921250227,304.1200535829994,304.1200535829994,304.1200535829994,304.1200535829994,304.1200535829994,305.11974337502033,305.11974337502033,c,1,0.531317457993282,None,412603,001,2023-10-17_16h54.22.548,sequential_learning_exp,2023.1.3,60.33152146403869,
-150,z,29,3,119,3,,,,,305.6701630000025,306.67005604100996,306.67005604100996,306.67005604100996,306.67005604100996,306.67005604100996,307.6706849160255,307.6706849160255,z,1,0.39963724999688566,None,412603,001,2023-10-17_16h54.22.548,sequential_learning_exp,2023.1.3,60.33152146403869,
-50,x,30,0,120,0,,,,,308.1029335409985,309.1027997500205,309.1027997500205,309.1027997500205,309.1027997500205,309.1027997500205,310.0866079580155,310.0866079580155,x,1,0.42433370801154524,None,412603,001,2023-10-17_16h54.22.548,sequential_learning_exp,2023.1.3,60.33152146403869,
150,v,30,1,121,1,,,,,310.53651966599864,311.520181083004,311.520181083004,311.520181083004,311.520181083004,311.53736270801164,312.5197552080208,312.5197552080208,v,1,0.3729984579840675,None,412603,001,2023-10-17_16h54.22.548,sequential_learning_exp,2023.1.3,60.33152146403869,
50,c,30,2,122,2,,,,,312.91923158301506,313.90323995801737,313.90323995801737,313.90323995801737,313.90323995801737,313.91977837501327,314.90431254100986,314.90431254100986,c,1,0.37428399999043904,None,412603,001,2023-10-17_16h54.22.548,sequential_learning_exp,2023.1.3,60.33152146403869,
-150,z,30,3,123,3,,,,,315.3031258750125,316.2870113750105,316.2870113750105,316.2870113750105,316.2870113750105,316.30369925001287,317.3035825830011,317.3035825830011,z,1,0.5855825830076355,None,412603,001,2023-10-17_16h54.22.548,sequential_learning_exp,2023.1.3,60.33152146403869,
-50,x,31,0,124,0,,,,,317.9200704579998,318.92032100001234,318.92032100001234,318.92032100001234,318.92032100001234,318.92032100001234,319.90321283301455,319.90321283301455,x,1,0.9843067500041798,None,412603,001,2023-10-17_16h54.22.548,sequential_learning_exp,2023.1.3,60.33152146403869,
150,v,31,1,125,1,,,,,320.92013191600563,321.9039848750108,321.9039848750108,321.9039848750108,321.9039848750108,321.92095320799854,322.9035352500214,322.9035352500214,v,1,0.4015642080048565,None,412603,001,2023-10-17_16h54.22.548,sequential_learning_exp,2023.1.3,60.33152146403869,
50,c,31,2,126,2,,,,,323.3368850830011,324.3370401660213,324.3370401660213,324.3370401660213,324.3370401660213,324.3370401660213,325.3367907080101,325.3367907080101,c,1,1.174339291988872,None,412603,001,2023-10-17_16h54.22.548,sequential_learning_exp,2023.1.3,60.33152146403869,
-150,z,31,3,127,3,,,,,326.537114250008,327.5376564580074,327.5376564580074,327.5376564580074,327.5376564580074,327.5376564580074,328.52076191600645,328.52076191600645,z,1,0.5016849590174388,None,412603,001,2023-10-17_16h54.22.548,sequential_learning_exp,2023.1.3,60.33152146403869,
-50,x,32,0,128,0,,,,,329.05377100000624,330.0539296250208,330.0539296250208,330.0539296250208,330.0539296250208,330.0539296250208,331.05419375002384,331.05419375002384,x,1,0.6475668330094777,None,412603,001,2023-10-17_16h54.22.548,sequential_learning_exp,2023.1.3,60.33152146403869,
150,v,32,1,129,1,,,,,331.72085925002466,332.72146575001534,332.72146575001534,332.72146575001534,332.72146575001534,332.72146575001534,333.70427004102385,333.70427004102385,v,1,0.6221611250075512,None,412603,001,2023-10-17_16h54.22.548,sequential_learning_exp,2023.1.3,60.33152146403869,
50,c,32,2,130,2,,,,,334.35402825000347,335.337718625,335.337718625,335.337718625,335.337718625,335.35435395801323,336.33720879102475,336.33720879102475,c,1,0.9151532079849858,None,412603,001,2023-10-17_16h54.22.548,sequential_learning_exp,2023.1.3,60.33152146403869,
-150,z,32,3,131,3,,,,,337.27144220800255,338.2545959580166,338.2545959580166,338.2545959580166,338.2545959580166,338.2717270410212,339.2540617909981,339.2540617909981,z,1,0.42171987498295493,None,412603,001,2023-10-17_16h54.22.548,sequential_learning_exp,2023.1.3,60.33152146403869,
-50,x,33,0,132,0,,,,,339.70413070800714,340.7047013330157,340.7047013330157,340.7047013330157,340.7047013330157,340.7047013330157,341.70408554101596,341.70408554101596,x,1,0.45670470799086615,None,412603,001,2023-10-17_16h54.22.548,sequential_learning_exp,2023.1.3,60.33152146403869,
150,v,33,1,133,1,,,,,342.1874013750057,343.1717639999988,343.1717639999988,343.1717639999988,343.1717639999988,343.1879967080022,344.1719625410042,344.1719625410042,v,1,0.38706891701440327,None,412603,001,2023-10-17_16h54.22.548,sequential_learning_exp,2023.1.3,60.33152146403869,
50,c,33,2,134,2,,,,,344.58817150001414,345.58774850002374,345.58774850002374,345.58774850002374,345.58774850002374,345.58774850002374,346.5709896250046,346.5709896250046,c,1,0.5705890000099316,None,412603,001,2023-10-17_16h54.22.548,sequential_learning_exp,2023.1.3,60.33152146403869,
-150,z,33,3,135,3,,,,,347.1709877079993,348.17108650002046,348.17108650002046,348.17108650002046,348.17108650002046,348.17108650002046,349.15452408301644,349.15452408301644,z,1,0.5136462499795016,None,412603,001,2023-10-17_16h54.22.548,sequential_learning_exp,2023.1.3,60.33152146403869,
-50,x,34,0,136,0,,,,,349.6876816250151,350.67106570801116,350.67106570801116,350.67106570801116,350.67106570801116,350.6879617910017,351.6714046249981,351.6714046249981,x,1,0.636675958026899,None,412603,001,2023-10-17_16h54.22.548,sequential_learning_exp,2023.1.3,60.33152146403869,
150,v,34,1,137,1,,,,,352.33791012500296,353.3215093750041,353.3215093750041,353.3215093750041,353.3215093750041,353.3387982910208,354.3214482500043,354.3214482500043,v,1,0.3504608749935869,None,412603,001,2023-10-17_16h54.22.548,sequential_learning_exp,2023.1.3,60.33152146403869,
50,c,34,2,138,2,,,,,354.6879580000241,355.6885635830113,355.6885635830113,355.6885635830113,355.6885635830113,355.6885635830113,356.68802041601157,356.68802041601157,c,1,0.6618586250115186,None,412603,001,2023-10-17_16h54.22.548,sequential_learning_exp,2023.1.3,60.33152146403869,
-150,z,34,3,139,3,,,,,357.3714257910033,358.37353450001683,358.37353450001683,358.37353450001683,358.37353450001683,358.37353450001683,359.35488237501704,359.35488237501704,z,1,0.6249873750202823,None,412603,001,2023-10-17_16h54.22.548,sequential_learning_exp,2023.1.3,60.33152146403869,
-50,x,35,0,140,0,,,,,360.0048381250235,360.98814695799956,360.98814695799956,360.98814695799956,360.98814695799956,361.00505954099935,361.9880476250255,361.9880476250255,x,1,0.5017110000189859,None,412603,001,2023-10-17_16h54.22.548,sequential_learning_exp,2023.1.3,60.33152146403869,
150,v,35,1,141,1,,,,,362.5216200830182,363.52177712501725,363.52177712501725,363.52177712501725,363.52177712501725,363.52177712501725,364.5217479999992,364.5217479999992,v,1,0.4717838340147864,None,412603,001,2023-10-17_16h54.22.548,sequential_learning_exp,2023.1.3,60.33152146403869,
50,c,35,2,142,2,,,,,365.0217279159988,366.0227879580052,366.0227879580052,366.0227879580052,366.0227879580052,366.0227879580052,367.02169833300286,367.02169833300286,c,1,0.386233583005378,None,412603,001,2023-10-17_16h54.22.548,sequential_learning_exp,2023.1.3,60.33152146403869,
-150,z,35,3,143,3,,,,,367.4382025829982,368.4383785829996,368.4383785829996,368.4383785829996,368.4383785829996,368.4383785829996,369.43825591600034,369.43825591600034,z,1,0.7112942090025172,None,412603,001,2023-10-17_16h54.22.548,sequential_learning_exp,2023.1.3,60.33152146403869,
-50,x,36,0,144,0,,,,,370.1716662500112,371.17201825001393,371.17201825001393,371.17201825001393,371.17201825001393,371.17201825001393,372.17161666601896,372.17161666601896,x,1,0.5843839169829153,None,412603,001,2023-10-17_16h54.22.548,sequential_learning_exp,2023.1.3,60.33152146403869,
150,v,36,1,145,1,,,,,372.7884141250106,373.78932258300483,373.78932258300483,373.78932258300483,373.78932258300483,373.78932258300483,374.78851904100156,374.78851904100156,v,1,0.6016893330088351,None,412603,001,2023-10-17_16h54.22.548,sequential_learning_exp,2023.1.3,60.33152146403869,
50,c,36,2,146,2,,,,,375.4215037500253,376.4224108750059,376.4224108750059,376.4224108750059,376.4224108750059,376.4224108750059,377.42187970801024,377.42187970801024,c,1,0.4361979590030387,None,412603,001,2023-10-17_16h54.22.548,sequential_learning_exp,2023.1.3,60.33152146403869,
-150,z,36,3,147,3,,,,,377.8889841659984,378.8721232500102,378.8721232500102,378.8721232500102,378.8721232500102,378.888856916019,379.88883037501364,379.88883037501364,z,1,0.5524444170005154,None,412603,001,2023-10-17_16h54.22.548,sequential_learning_exp,2023.1.3,60.33152146403869,
-50,x,37,0,148,0,,,,,380.4719618750096,381.4722992910247,381.4722992910247,381.4722992910247,381.4722992910247,381.4722992910247,382.47213666600874,382.47213666600874,x,1,0.7010582500079181,None,412603,001,2023-10-17_16h54.22.548,sequential_learning_exp,2023.1.3,60.33152146403869,
150,v,37,1,149,1,,,,,383.2052123750036,384.2057524160191,384.2057524160191,384.2057524160191,384.2057524160191,384.2057524160191,385.1888583750115,385.1888583750115,v,1,0.4651368339837063,None,412603,001,2023-10-17_16h54.22.548,sequential_learning_exp,2023.1.3,60.33152146403869,
50,c,37,2,150,2,,,,,385.6722883330076,386.65563708302216,386.65563708302216,386.65563708302216,386.65563708302216,386.6729330000235,387.65545345802093,387.65545345802093,c,1,0.560594000009587,None,412603,001,2023-10-17_16h54.22.548,sequential_learning_exp,2023.1.3,60.33152146403869,
-150,z,37,3,151,3,,,,,388.2387220830133,389.2224550000101,389.2224550000101,389.2224550000101,389.2224550000101,389.23932900000364,390.2224102500186,390.2224102500186,z,1,0.39010316698113456,None,412603,001,2023-10-17_16h54.22.548,sequential_learning_exp,2023.1.3,60.33152146403869,
-50,x,38,0,152,0,,,,,390.63876750000054,391.6226788330241,391.6226788330241,391.6226788330241,391.6226788330241,391.63903262501117,392.622472750023,392.622472750023,x,1,0.4487608339986764,None,412603,001,2023-10-17_16h54.22.548,sequential_learning_exp,2023.1.3,60.33152146403869,
150,v,38,1,153,1,,,,,393.08913654100616,394.0893083749979,394.0893083749979,394.0893083749979,394.0893083749979,394.0893083749979,395.0721321660094,395.0721321660094,v,1,0.45506854201084934,None,412603,001,2023-10-17_16h54.22.548,sequential_learning_exp,2023.1.3,60.33152146403869,
50,c,38,2,154,2,,,,,395.5556029580184,396.5392775410146,396.5392775410146,396.5392775410146,396.5392775410146,396.55607800002326,397.53907058300683,397.53907058300683,c,1,0.41166529202018864,None,412603,001,2023-10-17_16h54.22.548,sequential_learning_exp,2023.1.3,60.33152146403869,
-150,z,38,3,155,3,,,,,397.9726100410044,398.97281887501595,398.97281887501595,398.97281887501595,398.97281887501595,398.97281887501595,399.95589275000384,399.95589275000384,z,1,0.47572541699628346,None,412603,001,2023-10-17_16h54.22.548,sequential_learning_exp,2023.1.3,60.33152146403869,
-50,x,39,0,156,0,,,,,400.4559800410061,401.4561205000209,401.4561205000209,401.4561205000209,401.4561205000209,401.4561205000209,402.45609470800264,402.45609470800264,x,1,0.4659211249963846,None,412603,001,2023-10-17_16h54.22.548,sequential_learning_exp,2023.1.3,60.33152146403869,
150,v,39,1,157,1,,,,,402.9396500410221,403.923140791012,403.923140791012,403.923140791012,403.923140791012,403.93984454101883,404.92305245800526,404.92305245800526,v,1,0.41479341601370834,None,412603,001,2023-10-17_16h54.22.548,sequential_learning_exp,2023.1.3,60.33152146403869,
50,c,39,2,158,2,,,,,405.35645900000236,406.3395697500091,406.3395697500091,406.3395697500091,406.3395697500091,406.35656466599903,407.3396303750051,407.3396303750051,c,1,0.33152208299725316,None,412603,001,2023-10-17_16h54.22.548,sequential_learning_exp,2023.1.3,60.33152146403869,
-150,z,39,3,159,3,,,,,407.68977254102356,408.6729775410204,408.6729775410204,408.6729775410204,408.6729775410204,408.6900664160203,409.6893309580046,409.6893309580046,z,1,0.5240988339937758,None,412603,001,2023-10-17_16h54.22.548,sequential_learning_exp,2023.1.3,60.33152146403869,
-50,x,40,0,160,0,,,,,410.2395165830094,411.2229365410167,411.2229365410167,411.2229365410167,411.2229365410167,411.23934191602166,412.2242243330111,412.2242243330111,x,1,0.6594682919967454,None,412603,001,2023-10-17_16h54.22.548,sequential_learning_exp,2023.1.3,60.33152146403869,
150,v,40,1,161,1,,,,,412.90615337502095,413.89007570801186,413.89007570801186,413.89007570801186,413.89007570801186,413.90657379099866,414.9062603750208,414.9062603750208,v,1,0.46565858300891705,None,412603,001,2023-10-17_16h54.22.548,sequential_learning_exp,2023.1.3,60.33152146403869,
50,c,40,2,162,2,,,,,415.3895797080186,416.3734619580209,416.3734619580209,416.3734619580209,416.3734619580209,416.390496625012,417.37365770799806,417.37365770799806,c,1,0.6744198750238866,None,412603,001,2023-10-17_16h54.22.548,sequential_learning_exp,2023.1.3,60.33152146403869,
-150,z,40,3,163,3,,,,,418.07307333301287,419.07350250001764,419.07350250001764,419.07350250001764,419.07350250001764,419.07350250001764,420.0735495830013,420.0735495830013,z,1,0.4739578750159126,None,412603,001,2023-10-17_16h54.22.548,sequential_learning_exp,2023.1.3,60.33152146403869,
-50,x,41,0,164,0,,,,,420.57301933300914,421.57352620799793,421.57352620799793,421.57352620799793,421.57352620799793,421.57352620799793,422.5566041250131,422.5566041250131,x,1,0.8371583340049256,None,412603,001,2023-10-17_16h54.22.548,sequential_learning_exp,2023.1.3,60.33152146403869,
150,v,41,1,165,1,,,,,423.4236146660114,424.4238910410204,424.4238910410204,424.4238910410204,424.4238910410204,424.4238910410204,425.42344512502314,425.42344512502314,v,1,0.5085850410105195,None,412603,001,2023-10-17_16h54.22.548,sequential_learning_exp,2023.1.3,60.33152146403869,
50,c,41,2,166,2,,,,,425.9569460830244,426.957344125025,426.957344125025,426.957344125025,426.957344125025,426.957344125025,427.9404299160233,427.9404299160233,c,1,0.40385341600631364,None,412603,001,2023-10-17_16h54.22.548,sequential_learning_exp,2023.1.3,60.33152146403869,
-150,z,41,3,167,3,,,,,428.3734304160171,429.35726695801714,429.35726695801714,429.35726695801714,429.35726695801714,429.3744207910204,430.3568416250055,430.3568416250055,z,1,0.5555213330080733,None,412603,001,2023-10-17_16h54.22.548,sequential_learning_exp,2023.1.3,60.33152146403869,
-50,x,42,0,168,0,,,,,430.94038508299855,431.9238880830235,431.9238880830235,431.9238880830235,431.9238880830235,431.94079358302406,432.94086150001385,432.94086150001385,x,1,0.4219337499816902,None,412603,001,2023-10-17_16h54.22.548,sequential_learning_exp,2023.1.3,60.33152146403869,
150,v,42,1,169,1,,,,,433.3904671659984,434.3740686660167,434.3740686660167,434.3740686660167,434.3740686660167,434.39101400002255,435.3739433750161,435.3739433750161,v,1,0.3756585830124095,None,412603,001,2023-10-17_16h54.22.548,sequential_learning_exp,2023.1.3,60.33152146403869,
50,c,42,2,170,2,,,,,435.77356195801985,436.7740075410111,436.7740075410111,436.7740075410111,436.7740075410111,436.7740075410111,437.77364050000324,437.77364050000324,c,1,1.0855694999918342,None,412603,001,2023-10-17_16h54.22.548,sequential_learning_exp,2023.1.3,60.33152146403869,
-150,z,42,3,171,3,,,,,438.89045633299975,439.89088733302196,439.89088733302196,439.89088733302196,439.89088733302196,439.89088733302196,440.87372758300626,440.87372758300626,z,1,0.42004787499899976,None,412603,001,2023-10-17_16h54.22.548,sequential_learning_exp,2023.1.3,60.33152146403869,
-50,x,43,0,172,0,,,,,441.32399516602163,442.32389654099825,442.32389654099825,442.32389654099825,442.32389654099825,442.32389654099825,443.307379750011,443.307379750011,x,1,0.42534345798776485,None,412603,001,2023-10-17_16h54.22.548,sequential_learning_exp,2023.1.3,60.33152146403869,
150,v,43,1,173,1,,,,,443.75800858301227,444.74136412501684,444.74136412501684,444.74136412501684,444.74136412501684,444.7577450000099,445.7572846249968,445.7572846249968,v,1,0.543512042000657,None,412603,001,2023-10-17_16h54.22.548,sequential_learning_exp,2023.1.3,60.33152146403869,
50,c,43,2,174,2,,,,,446.324384416017,447.32461966600385,447.32461966600385,447.32461966600385,447.32461966600385,447.32461966600385,448.3243653330137,448.3243653330137,c,1,0.7316180419875309,None,412603,001,2023-10-17_16h54.22.548,sequential_learning_exp,2023.1.3,60.33152146403869,
-150,z,43,3,175,3,,,,,449.074182958022,450.0577859580226,450.0577859580226,450.0577859580226,450.0577859580226,450.07411950000096,451.0575920410047,451.0575920410047,z,1,0.7652170409855898,None,412603,001,2023-10-17_16h54.22.548,sequential_learning_exp,2023.1.3,60.33152146403869,
-50,x,44,0,176,0,,,,,451.84060979101923,452.82480466601555,452.82480466601555,452.82480466601555,452.82480466601555,452.8408089580189,453.82413429100416,453.82413429100416,x,1,0.4855740000202786,None,412603,001,2023-10-17_16h54.22.548,sequential_learning_exp,2023.1.3,60.33152146403869,
150,v,44,1,177,1,,,,,454.3407427080092,455.32433375000255,455.32433375000255,455.32433375000255,455.32433375000255,455.34117087500636,456.3410877500137,456.3410877500137,v,1,0.518328542006202,None,412603,001,2023-10-17_16h54.22.548,sequential_learning_exp,2023.1.3,60.33152146403869,
50,c,44,2,178,2,,,,,456.8907633750059,457.87465162502485,457.87465162502485,457.87465162502485,457.87465162502485,457.8919375000114,458.8742070830194,458.8742070830194,c,1,0.45358812500489876,None,412603,001,2023-10-17_16h54.22.548,sequential_learning_exp,2023.1.3,60.33152146403869,
-150,z,44,3,179,3,,,,,459.357645333017,460.3580611660145,460.3580611660145,460.3580611660145,460.3580611660145,460.3580611660145,461.3412488750182,461.3412488750182,z,1,0.33818487499956973,None,412603,001,2023-10-17_16h54.22.548,sequential_learning_exp,2023.1.3,60.33152146403869,
-50,x,45,0,180,0,,,,,461.70758329101955,462.6914582910249,462.6914582910249,462.6914582910249,462.6914582910249,462.70884208299685,463.69149975001346,463.69149975001346,x,1,0.3169381250045262,None,412603,001,2023-10-17_16h54.22.548,sequential_learning_exp,2023.1.3,60.33152146403869,
150,v,45,1,181,1,,,,,464.0412597079994,465.04126850000466,465.04126850000466,465.04126850000466,465.04126850000466,465.04126850000466,466.0248389580229,466.0248389580229,v,1,0.40156816598027945,None,412603,001,2023-10-17_16h54.22.548,sequential_learning_exp,2023.1.3,60.33152146403869,
50,c,45,2,182,2,,,,,466.45796566602075,467.4581422909978,467.4581422909978,467.4581422909978,467.4581422909978,467.4581422909978,468.45813608300523,468.45813608300523,c,1,0.3513431250175927,None,412603,001,2023-10-17_16h54.22.548,sequential_learning_exp,2023.1.3,60.33152146403869,
-150,z,45,3,183,3,,,,,468.84113575000083,469.82484962500166,469.82484962500166,469.82484962500166,469.82484962500166,469.8416271660244,470.84131095799967,470.84131095799967,z,1,0.4119862500228919,None,412603,001,2023-10-17_16h54.22.548,sequential_learning_exp,2023.1.3,60.33152146403869,
-50,x,46,0,184,0,,,,,471.27465079101967,472.2580811250082,472.2580811250082,472.2580811250082,472.2580811250082,472.27467833302217,473.2585051250062,473.2585051250062,x,1,0.5583882920036558,None,412603,001,2023-10-17_16h54.22.548,sequential_learning_exp,2023.1.3,60.33152146403869,
150,v,46,1,185,1,,,,,473.8413428750064,474.8415840410162,474.8415840410162,474.8415840410162,474.8415840410162,474.8415840410162,475.84182720800163,475.84182720800163,v,1,0.40096095800981857,None,412603,001,2023-10-17_16h54.22.548,sequential_learning_exp,2023.1.3,60.33152146403869,
50,c,46,2,186,2,,,,,476.27465358300833,477.27498429099796,477.27498429099796,477.27498429099796,477.27498429099796,477.27498429099796,478.2580480000179,478.2580480000179,c,1,0.3170926659950055,None,412603,001,2023-10-17_16h54.22.548,sequential_learning_exp,2023.1.3,60.33152146403869,
-150,z,46,3,187,3,,,,,478.6080330830009,479.60847300000023,479.60847300000023,479.60847300000023,479.60847300000023,479.60847300000023,480.6084071250225,480.6084071250225,z,1,0.4488643330114428,None,412603,001,2023-10-17_16h54.22.548,sequential_learning_exp,2023.1.3,60.33152146403869,
-50,x,47,0,188,0,,,,,481.07495920802467,482.0590365829994,482.0590365829994,482.0590365829994,482.0590365829994,482.0756627500232,483.0585528330121,483.0585528330121,x,1,0.36206583300372586,None,412603,001,2023-10-17_16h54.22.548,sequential_learning_exp,2023.1.3,60.33152146403869,
150,v,47,1,189,1,,,,,483.44164458301384,484.4255633330031,484.4255633330031,484.4255633330031,484.4255633330031,484.44182670800365,485.42551341600483,485.42551341600483,v,1,0.34964162501273677,None,412603,001,2023-10-17_16h54.22.548,sequential_learning_exp,2023.1.3,60.33152146403869,
50,c,47,2,190,2,,,,,485.7920782500005,486.7921592500061,486.7921592500061,486.7921592500061,486.7921592500061,486.7921592500061,487.7916519160208,487.7916519160208,c,1,0.3193703749857377,None,412603,001,2023-10-17_16h54.22.548,sequential_learning_exp,2023.1.3,60.33152146403869,
-150,z,47,3,191,3,,,,,488.1417597079999,489.142660625017,489.142660625017,489.142660625017,489.142660625017,489.142660625017,490.1420785000082,490.1420785000082,z,1,0.3718793749867473,None,412603,001,2023-10-17_16h54.22.548,sequential_learning_exp,2023.1.3,60.33152146403869,
-50,x,48,0,192,0,,,,,490.5415191659995,491.5422811250028,491.5422811250028,491.5422811250028,491.5422811250028,491.5422811250028,492.5417776660179,492.5417776660179,x,1,0.5277413330040872,None,412603,001,2023-10-17_16h54.22.548,sequential_learning_exp,2023.1.3,60.33152146403869,
150,v,48,1,193,1,,,,,493.0922626660031,494.0926542910165,494.0926542910165,494.0926542910165,494.0926542910165,494.0926542910165,495.07584550001775,495.07584550001775,v,1,0.3539881670149043,None,412603,001,2023-10-17_16h54.22.548,sequential_learning_exp,2023.1.3,60.33152146403869,
50,c,48,2,194,2,,,,,495.45942616602406,496.4429681250185,496.4429681250185,496.4429681250185,496.4429681250185,496.45931541602476,497.45966583301197,497.45966583301197,c,1,0.2934137499833014,None,412603,001,2023-10-17_16h54.22.548,sequential_learning_exp,2023.1.3,60.33152146403869,
-150,z,48,3,195,3,,,,,497.77562920801574,498.7758492080029,498.7758492080029,498.7758492080029,498.7758492080029,498.7758492080029,499.75892387502245,499.75892387502245,z,1,0.42391520901583135,None,412603,001,2023-10-17_16h54.22.548,sequential_learning_exp,2023.1.3,60.33152146403869,
-50,x,49,0,196,0,,,,,500.20905079101794,501.1922121660027,501.1922121660027,501.1922121660027,501.1922121660027,501.2092772910255,502.1920367910061,502.1920367910061,x,1,0.4082233340013772,None,412603,001,2023-10-17_16h54.22.548,sequential_learning_exp,2023.1.3,60.33152146403869,
150,v,49,1,197,1,,,,,502.6257138750225,503.6096213750134,503.6096213750134,503.6096213750134,503.6096213750134,503.6264237910218,504.6255252500123,504.6255252500123,v,1,0.41151558299316093,None,412603,001,2023-10-17_16h54.22.548,sequential_learning_exp,2023.1.3,60.33152146403869,
50,c,49,2,198,2,,,,,505.0604654159979,506.05904275001376,506.05904275001376,506.05904275001376,506.05904275001376,506.07628950002254,507.05940166601795,507.05940166601795,c,1,0.6696604159951676,None,412603,001,2023-10-17_16h54.22.548,sequential_learning_exp,2023.1.3,60.33152146403869,
-150,z,49,3,199,3,,,,,507.7589010410011,508.74312866601394,508.74312866601394,508.74312866601394,508.74312866601394,508.759495041013,509.74239945801673,509.74239945801673,z,1,0.4185716669890098,None,412603,001,2023-10-17_16h54.22.548,sequential_learning_exp,2023.1.3,60.33152146403869,
-150,z,,,,,0,0,0,3,510.19723029099987,511.193168333004,511.193168333004,511.193168333004,511.193168333004,511.20951608300675,512.1923954160011,512.1923954160011,z,1,0.534768833022099,None,412603,001,2023-10-17_16h54.22.548,sequential_learning_exp,2023.1.3,60.33152146403869,
50,c,,,,,0,1,1,2,512.7587948330038,513.7592955,513.7592955,513.7592955,513.7592955,513.7592955,514.7594204580237,514.7594204580237,c,1,0.6117738750181161,None,412603,001,2023-10-17_16h54.22.548,sequential_learning_exp,2023.1.3,60.33152146403869,
-150,z,,,,,0,2,2,3,515.3927043330041,516.3929554580245,516.3929554580245,516.3929554580245,516.3929554580245,516.3929554580245,517.3759432500228,517.3759432500228,z,1,0.4205830829741899,None,412603,001,2023-10-17_16h54.22.548,sequential_learning_exp,2023.1.3,60.33152146403869,
50,c,,,,,0,3,3,2,517.8261865410022,518.8096293749986,518.8096293749986,518.8096293749986,518.8096293749986,518.8265107080224,519.8094770410098,519.8094770410098,c,1,0.5215122910158243,None,412603,001,2023-10-17_16h54.22.548,sequential_learning_exp,2023.1.3,60.33152146403869,
-50,x,,,,,1,0,4,0,520.3593912080105,521.3432970830181,521.3432970830181,521.3432970830181,521.3432970830181,521.3597533749999,522.3594152080186,522.3594152080186,x,1,0.5213132499775384,None,412603,001,2023-10-17_16h54.22.548,sequential_learning_exp,2023.1.3,60.33152146403869,
-150,z,,,,,1,1,5,3,522.909359458019,523.9095650830131,523.9095650830131,523.9095650830131,523.9095650830131,523.9095650830131,524.8930173330009,524.8930173330009,z,1,0.5145400410110597,None,412603,001,2023-10-17_16h54.22.548,sequential_learning_exp,2023.1.3,60.33152146403869,
-150,z,,,,,1,2,6,3,525.4263515830098,526.4104904160195,526.4104904160195,526.4104904160195,526.4104904160195,526.4269727080246,527.409798083012,527.409798083012,z,1,0.46835824998561293,None,412603,001,2023-10-17_16h54.22.548,sequential_learning_exp,2023.1.3,60.33152146403869,
150,v,,,,,1,3,7,1,527.9094492910081,528.9099610830017,528.9099610830017,528.9099610830017,528.9099610830017,528.9099610830017,529.8930893330253,529.8930893330253,v,1,0.4250260000117123,None,412603,001,2023-10-17_16h54.22.548,sequential_learning_exp,2023.1.3,60.33152146403869,
50,c,,,,,2,0,8,2,530.3432563329989,531.3268887500162,531.3268887500162,531.3268887500162,531.3268887500162,531.3433720410103,532.3264129580057,532.3264129580057,c,1,0.38897437500418164,None,412603,001,2023-10-17_16h54.22.548,sequential_learning_exp,2023.1.3,60.33152146403869,
-50,x,,,,,2,1,9,0,532.7430675000069,533.7276354580245,533.7276354580245,533.7276354580245,533.7276354580245,533.7445274160127,534.7263818330248,534.7263818330248,x,1,0.45133216597605497,None,412603,001,2023-10-17_16h54.22.548,sequential_learning_exp,2023.1.3,60.33152146403869,
-150,z,,,,,2,2,10,3,535.21027666601,536.1933229160204,536.1933229160204,536.1933229160204,536.1933229160204,536.2105119580228,537.2100334580173,537.2100334580173,z,1,0.3646727080049459,None,412603,001,2023-10-17_16h54.22.548,sequential_learning_exp,2023.1.3,60.33152146403869,
-150,z,,,,,2,3,11,3,537.5934700409998,538.576847999997,538.576847999997,538.576847999997,538.576847999997,538.5932590830198,539.5768950000056,539.5768950000056,z,1,0.32492816701414995,None,412603,001,2023-10-17_16h54.22.548,sequential_learning_exp,2023.1.3,60.33152146403869,
150,v,,,,,3,0,12,1,539.9266275830159,540.9268444580084,540.9268444580084,540.9268444580084,540.9268444580084,540.9268444580084,541.9101176249969,541.9101176249969,v,1,0.4663996250019409,None,412603,001,2023-10-17_16h54.22.548,sequential_learning_exp,2023.1.3,60.33152146403869,
150,v,,,,,3,1,13,1,542.3936182910111,543.3936850830214,543.3936850830214,543.3936850830214,543.3936850830214,543.3936850830214,544.3933716250176,544.3933716250176,v,1,0.47658383299130946,None,412603,001,2023-10-17_16h54.22.548,sequential_learning_exp,2023.1.3,60.33152146403869,
50,c,,,,,3,2,14,2,544.8933792080206,545.8938662080036,545.8938662080036,545.8938662080036,545.8938662080036,545.8938662080036,546.8771166660008,546.8771166660008,c,1,0.38991204201010987,None,412603,001,2023-10-17_16h54.22.548,sequential_learning_exp,2023.1.3,60.33152146403869,
-50,x,,,,,3,3,15,0,547.2935110000253,548.2773014999984,548.2773014999984,548.2773014999984,548.2773014999984,548.2946185410256,549.2774683750176,549.2774683750176,x,1,0.32283495902083814,None,412603,001,2023-10-17_16h54.22.548,sequential_learning_exp,2023.1.3,60.33152146403869,
50,c,,,,,4,0,16,2,549.6269352500094,550.6273887499992,550.6273887499992,550.6273887499992,550.6273887499992,550.6273887499992,551.6105966250179,551.6105966250179,c,1,0.4021984999999404,None,412603,001,2023-10-17_16h54.22.548,sequential_learning_exp,2023.1.3,60.33152146403869,
50,c,,,,,4,1,17,2,552.0435405830212,553.0273782080039,553.0273782080039,553.0273782080039,553.0273782080039,553.0440791660221,554.043432291015,554.043432291015,c,1,0.3194561660056934,None,412603,001,2023-10-17_16h54.22.548,sequential_learning_exp,2023.1.3,60.33152146403869,
150,v,,,,,4,2,18,1,554.3933414159983,555.3939485000155,555.3939485000155,555.3939485000155,555.3939485000155,555.3939485000155,556.3938259160204,556.3938259160204,v,1,0.4360520420013927,None,412603,001,2023-10-17_16h54.22.548,sequential_learning_exp,2023.1.3,60.33152146403869,
150,v,,,,,4,3,19,1,556.8608236250002,557.8608400830126,557.8608400830126,557.8608400830126,557.8608400830126,557.8608400830126,558.8606679580116,558.8606679580116,v,1,0.3884131250088103,None,412603,001,2023-10-17_16h54.22.548,sequential_learning_exp,2023.1.3,60.33152146403869,
-50,x,,,,,5,0,20,0,559.2773711250047,560.2777791660046,560.2777791660046,560.2777791660046,560.2777791660046,560.2777791660046,561.2773246660072,561.2773246660072,x,1,0.6727071249915753,None,412603,001,2023-10-17_16h54.22.548,sequential_learning_exp,2023.1.3,60.33152146403869,
-150,z,,,,,5,1,21,3,561.9771445000079,562.9773078330036,562.9773078330036,562.9773078330036,562.9773078330036,562.9773078330036,563.9772836659977,563.9772836659977,z,1,0.34954924997873604,None,412603,001,2023-10-17_16h54.22.548,sequential_learning_exp,2023.1.3,60.33152146403869,
-150,z,,,,,5,2,22,3,564.3444810410147,565.3281803330174,565.3281803330174,565.3281803330174,565.3281803330174,565.344385208009,566.327655666013,566.327655666013,z,1,0.34570895798970014,None,412603,001,2023-10-17_16h54.22.548,sequential_learning_exp,2023.1.3,60.33152146403869,
150,v,,,,,5,3,23,1,566.694058041001,567.6943654160132,567.6943654160132,567.6943654160132,567.6943654160132,567.6943654160132,568.6776198330044,568.6776198330044,v,1,0.4174607089953497,None,412603,001,2023-10-17_16h54.22.548,sequential_learning_exp,2023.1.3,60.33152146403869,
150,v,,,,,6,0,24,1,569.1275560409995,570.1115408750193,570.1115408750193,570.1115408750193,570.1115408750193,570.1284607080161,571.1275480000186,571.1275480000186,v,1,0.4405353330075741,None,412603,001,2023-10-17_16h54.22.548,sequential_learning_exp,2023.1.3,60.33152146403869,
-50,x,,,,,6,1,25,0,571.5957832499989,572.5941800830187,572.5941800830187,572.5941800830187,572.5941800830187,572.5941800830187,573.5945489580045,573.5945489580045,x,1,0.39832587499404326,None,412603,001,2023-10-17_16h54.22.548,sequential_learning_exp,2023.1.3,60.33152146403869,
-50,x,,,,,6,2,26,0,574.0112431250163,575.0121390830027,575.0121390830027,575.0121390830027,575.0121390830027,575.0121390830027,576.0113455410174,576.0113455410174,x,1,0.4479767919983715,None,412603,001,2023-10-17_16h54.22.548,sequential_learning_exp,2023.1.3,60.33152146403869,
-50,x,,,,,6,3,27,0,576.4778660830052,577.4777831250103,577.4777831250103,577.4777831250103,577.4777831250103,577.4777831250103,578.461272125016,578.461272125016,x,1,0.5517180000024382,None,412603,001,2023-10-17_16h54.22.548,sequential_learning_exp,2023.1.3,60.33152146403869,
-50,x,,,,,7,0,28,0,579.0442832499975,580.028057041025,580.028057041025,580.028057041025,580.028057041025,580.044687540998,581.0277641249995,581.0277641249995,x,1,0.41191858300589956,None,412603,001,2023-10-17_16h54.22.548,sequential_learning_exp,2023.1.3,60.33152146403869,
-150,z,,,,,7,1,29,3,581.4615044160164,582.461686583003,582.461686583003,582.461686583003,582.461686583003,582.461686583003,583.4444186250039,583.4444186250039,z,1,0.4804770000046119,None,412603,001,2023-10-17_16h54.22.548,sequential_learning_exp,2023.1.3,60.33152146403869,
-150,z,,,,,7,2,30,3,583.944685541006,584.9450644160097,584.9450644160097,584.9450644160097,584.9450644160097,584.9450644160097,585.9281621660048,585.9281621660048,z,1,0.37034891700022854,None,412603,001,2023-10-17_16h54.22.548,sequential_learning_exp,2023.1.3,60.33152146403869,
-150,z,,,,,7,3,31,3,586.3280329160043,587.3121220410103,587.3121220410103,587.3121220410103,587.3121220410103,587.328902875015,588.3114072910103,588.3114072910103,z,1,0.3986623749951832,None,412603,001,2023-10-17_16h54.22.548,sequential_learning_exp,2023.1.3,60.33152146403869,
50,c,,,,,8,0,32,2,588.7284092910122,589.7285890000057,589.7285890000057,589.7285890000057,589.7285890000057,589.7285890000057,590.7283867910155,590.7283867910155,c,1,0.5852694170025643,None,412603,001,2023-10-17_16h54.22.548,sequential_learning_exp,2023.1.3,60.33152146403869,
150,v,,,,,8,1,33,1,591.3449900000123,592.3284644160012,592.3284644160012,592.3284644160012,592.3284644160012,592.3455955000245,593.3449438330135,593.3449438330135,v,1,0.40141191700240597,None,412603,001,2023-10-17_16h54.22.548,sequential_learning_exp,2023.1.3,60.33152146403869,
150,v,,,,,8,2,34,1,593.778105083009,594.7785591660067,594.7785591660067,594.7785591660067,594.7785591660067,594.7785591660067,595.7620105000096,595.7620105000096,v,1,0.4318282089952845,None,412603,001,2023-10-17_16h54.22.548,sequential_learning_exp,2023.1.3,60.33152146403869,
-150,z,,,,,8,3,35,3,596.2119078750256,597.212106166,597.212106166,597.212106166,597.212106166,597.212106166,598.1961142910004,598.1961142910004,z,1,0.47838970899465494,None,412603,001,2023-10-17_16h54.22.548,sequential_learning_exp,2023.1.3,60.33152146403869,
150,v,,,,,9,0,36,1,598.6952389580256,599.6955344160087,599.6955344160087,599.6955344160087,599.6955344160087,599.6955344160087,600.6792436250253,600.6792436250253,v,1,0.37221758300438523,None,412603,001,2023-10-17_16h54.22.548,sequential_learning_exp,2023.1.3,60.33152146403869,
-50,x,,,,,9,1,37,0,601.0784174580185,602.0786032500037,602.0786032500037,602.0786032500037,602.0786032500037,602.0786032500037,603.062001208018,603.062001208018,x,1,0.549763167015044,None,412603,001,2023-10-17_16h54.22.548,sequential_learning_exp,2023.1.3,60.33152146403869,
-150,z,,,,,9,2,38,3,603.6288624580193,604.6130637910101,604.6130637910101,604.6130637910101,604.6130637910101,604.6285687500203,605.6287478330196,605.6287478330196,z,1,0.46489279199158773,None,412603,001,2023-10-17_16h54.22.548,sequential_learning_exp,2023.1.3,60.33152146403869,
50,c,,,,,9,3,39,2,606.1121281250089,607.112348583003,607.112348583003,607.112348583003,607.112348583003,607.112348583003,608.1121153330023,608.1121153330023,c,1,0.6848138750065118,None,412603,001,2023-10-17_16h54.22.548,sequential_learning_exp,2023.1.3,60.33152146403869,
-50,x,,,,,10,0,40,0,608.8287886660255,609.8291035000002,609.8291035000002,609.8291035000002,609.8291035000002,609.8291035000002,610.8290602080233,610.8290602080233,x,1,0.3995619170018472,None,412603,001,2023-10-17_16h54.22.548,sequential_learning_exp,2023.1.3,60.33152146403869,
50,c,,,,,10,1,41,2,611.2454928329971,612.2288663330255,612.2288663330255,612.2288663330255,612.2288663330255,612.2457525000209,613.2286963330116,613.2286963330116,c,1,0.5269327909918502,None,412603,001,2023-10-17_16h54.22.548,sequential_learning_exp,2023.1.3,60.33152146403869,
150,v,,,,,10,2,42,1,613.7789872499998,614.7625864160073,614.7625864160073,614.7625864160073,614.7625864160073,614.7785899580049,615.7624777910241,615.7624777910241,v,1,0.4011007080262061,None,412603,001,2023-10-17_16h54.22.548,sequential_learning_exp,2023.1.3,60.33152146403869,
50,c,,,,,10,3,43,2,616.1953700830054,617.19597458301,617.19597458301,617.19597458301,617.19597458301,617.19597458301,618.1957107080088,618.1957107080088,c,1,0.3202578329946846,None,412603,001,2023-10-17_16h54.22.548,sequential_learning_exp,2023.1.3,60.33152146403869,
-150,z,,,,,11,0,44,3,618.5456856660021,619.5291611660214,619.5291611660214,619.5291611660214,619.5291611660214,619.5460677079973,620.5296089160256,620.5296089160256,z,1,0.4322742499934975,None,412603,001,2023-10-17_16h54.22.548,sequential_learning_exp,2023.1.3,60.33152146403869,
-50,x,,,,,11,1,45,0,620.9793885410181,621.9796757910226,621.9796757910226,621.9796757910226,621.9796757910226,621.9796757910226,622.9628101660055,622.9628101660055,x,1,0.3836831250227988,None,412603,001,2023-10-17_16h54.22.548,sequential_learning_exp,2023.1.3,60.33152146403869,
50,c,,,,,11,2,46,2,623.3791067080165,624.3629722910118,624.3629722910118,624.3629722910118,624.3629722910118,624.3798823330144,625.3624273750174,625.3624273750174,c,1,0.3319687919865828,None,412603,001,2023-10-17_16h54.22.548,sequential_learning_exp,2023.1.3,60.33152146403869,
-50,x,,,,,11,3,47,0,625.7126724580012,626.6962541660178,626.6962541660178,626.6962541660178,626.6962541660178,626.7130402080074,627.7124567080173,627.7124567080173,x,1,0.4982742089778185,None,412603,001,2023-10-17_16h54.22.548,sequential_learning_exp,2023.1.3,60.33152146403869,
-150,z,,,,,12,0,48,3,628.2293853330193,629.2131462910038,629.2131462910038,629.2131462910038,629.2131462910038,629.2293580410187,630.2295063330093,630.2295063330093,x,0,0.39096849999623373,None,412603,001,2023-10-17_16h54.22.548,sequential_learning_exp,2023.1.3,60.33152146403869,
150,v,,,,,12,1,49,1,630.6464228330005,631.6300473750161,631.6300473750161,631.6300473750161,631.6300473750161,631.6462947080145,632.6293640410004,632.6293640410004,v,1,0.3838883329881355,None,412603,001,2023-10-17_16h54.22.548,sequential_learning_exp,2023.1.3,60.33152146403869,
50,c,,,,,12,2,50,2,633.0456297500059,634.0307780000148,634.0307780000148,634.0307780000148,634.0307780000148,634.0469973750005,635.0461066660064,635.0461066660064,c,1,0.4898620000167284,None,412603,001,2023-10-17_16h54.22.548,sequential_learning_exp,2023.1.3,60.33152146403869,
-50,x,,,,,12,3,51,0,635.5623334580159,636.5464520000096,636.5464520000096,636.5464520000096,636.5464520000096,636.563990708004,637.5463765830209,637.5463765830209,x,1,0.3363465419970453,None,412603,001,2023-10-17_16h54.22.548,sequential_learning_exp,2023.1.3,60.33152146403869,
150,v,,,,,13,0,52,1,637.9128477910126,638.8964767500001,638.8964767500001,638.8964767500001,638.8964767500001,638.9132452080084,639.8965185410052,639.8965185410052,v,1,0.39958016702439636,None,412603,001,2023-10-17_16h54.22.548,sequential_learning_exp,2023.1.3,60.33152146403869,
-50,x,,,,,13,1,53,0,640.3131982909981,641.2967857909971,641.2967857909971,641.2967857909971,641.2967857909971,641.3138800410088,642.2964864580135,642.2964864580135,x,1,0.8004798750043847,None,412603,001,2023-10-17_16h54.22.548,sequential_learning_exp,2023.1.3,60.33152146403869,
-50,x,,,,,13,2,54,0,643.1294551660249,644.1305212910229,644.1305212910229,644.1305212910229,644.1305212910229,644.1305212910229,645.1127712080197,645.1127712080197,x,1,0.34569425001973286,None,412603,001,2023-10-17_16h54.22.548,sequential_learning_exp,2023.1.3,60.33152146403869,
50,c,,,,,13,3,55,2,645.4799082500103,646.4803253330174,646.4803253330174,646.4803253330174,646.4803253330174,646.4803253330174,647.4631736660085,647.4631736660085,c,1,0.4990208329982124,None,412603,001,2023-10-17_16h54.22.548,sequential_learning_exp,2023.1.3,60.33152146403869,
150,v,,,,,14,0,56,1,647.9799417910108,648.9801069580135,648.9801069580135,648.9801069580135,648.9801069580135,648.9801069580135,649.9798689160089,649.9798689160089,v,1,0.3619430839898996,None,412603,001,2023-10-17_16h54.22.548,sequential_learning_exp,2023.1.3,60.33152146403869,
50,c,,,,,14,1,57,2,650.3634741250135,651.3642493330117,651.3642493330117,651.3642493330117,651.3642493330117,651.3642493330117,652.3467604580219,652.3467604580219,c,1,0.4489217499794904,None,412603,001,2023-10-17_16h54.22.548,sequential_learning_exp,2023.1.3,60.33152146403869,
150,v,,,,,14,2,58,1,652.8134469159995,653.8137666660186,653.8137666660186,653.8137666660186,653.8137666660186,653.8137666660186,654.8134253750031,654.8134253750031,v,1,0.5316341250145342,None,412603,001,2023-10-17_16h54.22.548,sequential_learning_exp,2023.1.3,60.33152146403869,
-50,x,,,,,14,3,59,0,655.3635775000148,656.3488273750118,656.3488273750118,656.3488273750118,656.3488273750118,656.3635807500104,657.363759291009,657.363759291009,x,1,0.5923264999873936,None,412603,001,2023-10-17_16h54.22.548,sequential_learning_exp,2023.1.3,60.33152146403869,
-150,z,,,,,15,0,60,3,657.9804896660207,658.9806737080216,658.9806737080216,658.9806737080216,658.9806737080216,658.9806737080216,659.9804255409981,659.9804255409981,z,1,0.4407877500052564,None,412603,001,2023-10-17_16h54.22.548,sequential_learning_exp,2023.1.3,60.33152146403869,
-150,z,,,,,15,1,61,3,660.4469454580103,661.4468681660073,661.4468681660073,661.4468681660073,661.4468681660073,661.4468681660073,662.4472038329986,662.4472038329986,z,1,0.4171732079994399,None,412603,001,2023-10-17_16h54.22.548,sequential_learning_exp,2023.1.3,60.33152146403869,
50,c,,,,,15,2,62,2,662.8969674580148,663.897272791015,663.897272791015,663.897272791015,663.897272791015,663.897272791015,664.8817939160217,664.8817939160217,c,1,0.41551679201074876,None,412603,001,2023-10-17_16h54.22.548,sequential_learning_exp,2023.1.3,60.33152146403869,
-50,x,,,,,15,3,63,0,665.3138853330165,666.3140208749974,666.3140208749974,666.3140208749974,666.3140208749974,666.3140208749974,667.313823000004,667.313823000004,x,1,0.4354845419875346,None,412603,001,2023-10-17_16h54.22.548,sequential_learning_exp,2023.1.3,60.33152146403869,
50,c,,,,,16,0,64,2,667.7806244580133,668.7808805410168,668.7808805410168,668.7808805410168,668.7808805410168,668.7808805410168,669.7815982500033,669.7815982500033,c,1,0.9642535409948323,None,412603,001,2023-10-17_16h54.22.548,sequential_learning_exp,2023.1.3,60.33152146403869,
-50,x,,,,,16,1,65,0,670.7643030830077,671.7473799580184,671.7473799580184,671.7473799580184,671.7473799580184,671.7641587910184,672.7636865829991,672.7636865829991,x,1,0.42455766699276865,None,412603,001,2023-10-17_16h54.22.548,sequential_learning_exp,2023.1.3,60.33152146403869,
-50,x,,,,,16,2,66,0,673.2138929580105,674.2142590830044,674.2142590830044,674.2142590830044,674.2142590830044,674.2142590830044,675.1974111660093,675.1974111660093,x,1,0.4281222499848809,None,412603,001,2023-10-17_16h54.22.548,sequential_learning_exp,2023.1.3,60.33152146403869,
-50,x,,,,,16,3,67,0,675.6468800000148,676.631094500015,676.631094500015,676.631094500015,676.631094500015,676.6474087079987,677.6305332500197,677.6305332500197,x,1,0.3417527499841526,None,412603,001,2023-10-17_16h54.22.548,sequential_learning_exp,2023.1.3,60.33152146403869,
150,v,,,,,17,0,68,1,677.9974935830105,678.9809990830254,678.9809990830254,678.9809990830254,678.9809990830254,678.998013125005,679.9976002910116,679.9976002910116,v,1,0.578561708010966,None,412603,001,2023-10-17_16h54.22.548,sequential_learning_exp,2023.1.3,60.33152146403869,
150,v,,,,,17,1,69,1,680.5975936660252,681.5809597500192,681.5809597500192,681.5809597500192,681.5809597500192,681.5986338329967,682.5808837500226,682.5808837500226,v,1,0.4677866249985527,None,412603,001,2023-10-17_16h54.22.548,sequential_learning_exp,2023.1.3,60.33152146403869,
-50,x,,,,,17,2,70,0,683.0808062910219,684.0810586660227,684.0810586660227,684.0810586660227,684.0810586660227,684.0810586660227,685.0642487500154,685.0642487500154,x,1,0.40724983299151063,None,412603,001,2023-10-17_16h54.22.548,sequential_learning_exp,2023.1.3,60.33152146403869,
150,v,,,,,17,3,71,1,685.4976291659987,686.4814964999969,686.4814964999969,686.4814964999969,686.4814964999969,686.4978803330159,687.4812665000209,687.4812665000209,v,1,0.45699804098694585,None,412603,001,2023-10-17_16h54.22.548,sequential_learning_exp,2023.1.3,60.33152146403869,
-50,x,,,,,18,0,72,0,687.9642831660167,688.9480724580062,688.9480724580062,688.9480724580062,688.9480724580062,688.9645639160008,689.9478042080009,689.9478042080009,x,1,0.403810167015763,None,412603,001,2023-10-17_16h54.22.548,sequential_learning_exp,2023.1.3,60.33152146403869,
50,c,,,,,18,1,73,2,690.3816233749967,691.3808150830155,691.3808150830155,691.3808150830155,691.3808150830155,691.3808150830155,692.3808901250013,692.3808901250013,c,1,0.4024443750095088,None,412603,001,2023-10-17_16h54.22.548,sequential_learning_exp,2023.1.3,60.33152146403869,
50,c,,,,,18,2,74,2,692.814065833023,693.8146331250027,693.8146331250027,693.8146331250027,693.8146331250027,693.8146331250027,694.8145530410111,694.8145530410111,c,1,0.4041075420100242,None,412603,001,2023-10-17_16h54.22.548,sequential_learning_exp,2023.1.3,60.33152146403869,
150,v,,,,,18,3,75,1,695.2480565000151,696.2480299580202,696.2480299580202,696.2480299580202,696.2480299580202,696.2480299580202,697.2322882500011,697.2322882500011,v,1,0.3917764170037117,None,412603,001,2023-10-17_16h54.22.548,sequential_learning_exp,2023.1.3,60.33152146403869,
150,v,,,,,19,0,76,1,697.648118208017,698.631586500007,698.631586500007,698.631586500007,698.631586500007,698.6482672910206,699.632168000011,699.632168000011,v,1,0.41954095900291577,None,412603,001,2023-10-17_16h54.22.548,sequential_learning_exp,2023.1.3,60.33152146403869,
150,v,,,,,19,1,77,1,700.081496083003,701.0813289160142,701.0813289160142,701.0813289160142,701.0813289160142,701.0813289160142,702.0811851660255,702.0811851660255,v,1,0.41746100000455044,None,412603,001,2023-10-17_16h54.22.548,sequential_learning_exp,2023.1.3,60.33152146403869,
-150,z,,,,,19,2,78,3,702.5313376249978,703.5315959160216,703.5315959160216,703.5315959160216,703.5315959160216,703.5315959160216,704.5146787910198,704.5146787910198,z,1,0.41662295899004675,None,412603,001,2023-10-17_16h54.22.548,sequential_learning_exp,2023.1.3,60.33152146403869,
-150,z,,,,,19,3,79,3,704.9481084580184,705.9320278750092,705.9320278750092,705.9320278750092,705.9320278750092,705.9485419580014,706.9315858750197,706.9315858750197,z,1,0.4390656670148019,None,412603,001,2023-10-17_16h54.22.548,sequential_learning_exp,2023.1.3,60.33152146403869,
50,c,,,,,20,0,80,2,707.3982619160088,708.3817160830076,708.3817160830076,708.3817160830076,708.3817160830076,708.3988377080241,709.3818456660083,709.3818456660083,c,1,0.6693821669905446,None,412603,001,2023-10-17_16h54.22.548,sequential_learning_exp,2023.1.3,60.33152146403869,
50,c,,,,,20,1,81,2,710.0816643750004,711.0821583330107,711.0821583330107,711.0821583330107,711.0821583330107,711.0821583330107,712.0815729160095,712.0815729160095,v,0,0.2737441250064876,None,412603,001,2023-10-17_16h54.22.548,sequential_learning_exp,2023.1.3,60.33152146403869,
-150,z,,,,,20,2,82,3,712.3815443330095,713.3820956660202,713.3820956660202,713.3820956660202,713.3820956660202,713.3820956660202,714.3651483330177,714.3651483330177,z,1,0.44280454199179076,None,412603,001,2023-10-17_16h54.22.548,sequential_learning_exp,2023.1.3,60.33152146403869,
-50,x,,,,,20,3,83,0,714.8316466250108,715.8321092910192,715.8321092910192,715.8321092910192,715.8321092910192,715.8321092910192,716.8150558750203,716.8150558750203,x,1,0.5264535419992171,None,412603,001,2023-10-17_16h54.22.548,sequential_learning_exp,2023.1.3,60.33152146403869,
-150,z,,,,,21,0,84,3,717.3650982080144,718.3651269999973,718.3651269999973,718.3651269999973,718.3651269999973,718.3651269999973,719.3483775830246,719.3483775830246,z,1,0.507491458003642,None,412603,001,2023-10-17_16h54.22.548,sequential_learning_exp,2023.1.3,60.33152146403869,
-50,x,,,,,21,1,85,0,719.8816950410255,720.8821227500157,720.8821227500157,720.8821227500157,720.8821227500157,720.8821227500157,721.8659367080254,721.8659367080254,x,1,0.47361383301904425,None,412603,001,2023-10-17_16h54.22.548,sequential_learning_exp,2023.1.3,60.33152146403869,
50,c,,,,,21,2,86,2,722.3651042499987,723.3488119160174,723.3488119160174,723.3488119160174,723.3488119160174,723.3657287910173,724.365651458007,724.365651458007,c,1,0.5501683329930529,None,412603,001,2023-10-17_16h54.22.548,sequential_learning_exp,2023.1.3,60.33152146403869,
-150,z,,,,,21,3,87,3,724.9486437500163,725.9329955000139,725.9329955000139,725.9329955000139,725.9329955000139,725.9489238329988,726.948788291018,726.948788291018,z,1,0.7165110829810146,None,412603,001,2023-10-17_16h54.22.548,sequential_learning_exp,2023.1.3,60.33152146403869,
150,v,,,,,22,0,88,1,727.6821627910249,728.6656033330073,728.6656033330073,728.6656033330073,728.6656033330073,728.6823716250074,729.665609290998,729.665609290998,v,1,0.5137106250040233,None,412603,001,2023-10-17_16h54.22.548,sequential_learning_exp,2023.1.3,60.33152146403869,
150,v,,,,,22,1,89,1,730.1990565410233,731.1824500410003,731.1824500410003,731.1824500410003,731.1824500410003,731.1991869159974,732.1826738330128,732.1826738330128,v,1,0.5105573750042822,None,412603,001,2023-10-17_16h54.22.548,sequential_learning_exp,2023.1.3,60.33152146403869,
150,v,,,,,22,2,90,1,732.7153627910011,733.7159371250018,733.7159371250018,733.7159371250018,733.7159371250018,733.7159371250018,734.7161007910036,734.7161007910036,v,1,0.6194511670037173,None,412603,001,2023-10-17_16h54.22.548,sequential_learning_exp,2023.1.3,60.33152146403869,
-50,x,,,,,22,3,91,0,735.3657301659987,736.3658973330166,736.3658973330166,736.3658973330166,736.3658973330166,736.3658973330166,737.3661478330032,737.3661478330032,x,1,0.7758123330131639,None,412603,001,2023-10-17_16h54.22.548,sequential_learning_exp,2023.1.3,60.33152146403869,
-50,x,,,,,23,0,92,0,738.1657260830107,739.166411083017,739.166411083017,739.166411083017,739.166411083017,739.166411083017,740.1488667080121,740.1488667080121,x,1,0.4048722919833381,None,412603,001,2023-10-17_16h54.22.548,sequential_learning_exp,2023.1.3,60.33152146403869,
-50,x,,,,,23,1,93,0,740.5823067910096,741.5827052500099,741.5827052500099,741.5827052500099,741.5827052500099,741.5827052500099,742.5825980410154,742.5825980410154,x,1,0.34876824999810196,None,412603,001,2023-10-17_16h54.22.548,sequential_learning_exp,2023.1.3,60.33152146403869,
150,v,,,,,23,2,94,1,742.9494090000226,743.9494666250248,743.9494666250248,743.9494666250248,743.9494666250248,743.9494666250248,744.9332132080162,744.9332132080162,v,1,0.4287403750058729,None,412603,001,2023-10-17_16h54.22.548,sequential_learning_exp,2023.1.3,60.33152146403869,
50,c,,,,,23,3,95,2,745.3826206250233,746.3829667910177,746.3829667910177,746.3829667910177,746.3829667910177,746.3829667910177,747.3661693750182,747.3661693750182,c,1,0.49958683300064877,None,412603,001,2023-10-17_16h54.22.548,sequential_learning_exp,2023.1.3,60.33152146403869,
-150,z,,,,,24,0,96,3,747.8830867500219,748.8827991250146,748.8827991250146,748.8827991250146,748.8827991250146,748.8827991250146,749.8663737910101,749.8663737910101,x,0,0.3992118749883957,None,412603,001,2023-10-17_16h54.22.548,sequential_learning_exp,2023.1.3,60.33152146403869,
50,c,,,,,24,1,97,2,750.282844500005,751.2667815410241,751.2667815410241,751.2667815410241,751.2667815410241,751.2835385000217,752.266359583009,752.266359583009,c,1,0.36522595898713917,None,412603,001,2023-10-17_16h54.22.548,sequential_learning_exp,2023.1.3,60.33152146403869,
-50,x,,,,,24,2,98,0,752.6497787910048,753.6497301250056,753.6497301250056,753.6497301250056,753.6497301250056,753.6497301250056,754.6330515000154,754.6330515000154,x,1,0.48460862500360236,None,412603,001,2023-10-17_16h54.22.548,sequential_learning_exp,2023.1.3,60.33152146403869,
150,v,,,,,24,3,99,1,755.1496408329986,756.1332952910161,756.1332952910161,756.1332952910161,756.1332952910161,756.1501110410027,757.1335875829973,757.1335875829973,v,1,0.4270750000141561,None,412603,001,2023-10-17_16h54.22.548,sequential_learning_exp,2023.1.3,60.33152146403869,
50,c,,,,,25,0,100,2,757.5832998330006,758.5835819159984,758.5835819159984,758.5835819159984,758.5835819159984,758.5835819159984,759.5665944160137,759.5665944160137,c,1,0.6986800830054563,None,412603,001,2023-10-17_16h54.22.548,sequential_learning_exp,2023.1.3,60.33152146403869,
150,v,,,,,25,1,101,1,760.2834447910136,761.2832732080133,761.2832732080133,761.2832732080133,761.2832732080133,761.2832732080133,762.2829649580235,762.2829649580235,v,1,0.4995385840011295,None,412603,001,2023-10-17_16h54.22.548,sequential_learning_exp,2023.1.3,60.33152146403869,
-50,x,,,,,25,2,102,0,762.8000420830213,763.7842384579999,763.7842384579999,763.7842384579999,763.7842384579999,763.7998879580118,764.7832045410178,764.7832045410178,x,1,0.8511902919854037,None,412603,001,2023-10-17_16h54.22.548,sequential_learning_exp,2023.1.3,60.33152146403869,
150,v,,,,,25,3,103,1,765.6662642080046,766.6669847080193,766.6669847080193,766.6669847080193,766.6669847080193,766.6669847080193,767.666854125011,767.666854125011,v,1,0.4666028339997865,None,412603,001,2023-10-17_16h54.22.548,sequential_learning_exp,2023.1.3,60.33152146403869,
-150,z,,,,,26,0,104,3,768.1504151250119,769.1502690830093,769.1502690830093,769.1502690830093,769.1502690830093,769.1502690830093,770.1332436250232,770.1332436250232,z,1,0.7252835830149706,None,412603,001,2023-10-17_16h54.22.548,sequential_learning_exp,2023.1.3,60.33152146403869,
-150,z,,,,,26,1,105,3,770.8834523330152,771.8836838749994,771.8836838749994,771.8836838749994,771.8836838749994,771.8836838749994,772.8833699160023,772.8833699160023,z,1,0.6122269160114229,None,412603,001,2023-10-17_16h54.22.548,sequential_learning_exp,2023.1.3,60.33152146403869,
150,v,,,,,26,2,106,1,773.5169454580173,774.5174870830087,774.5174870830087,774.5174870830087,774.5174870830087,774.5174870830087,775.5013696250098,775.5013696250098,v,1,0.5968505409837235,None,412603,001,2023-10-17_16h54.22.548,sequential_learning_exp,2023.1.3,60.33152146403869,
-150,z,,,,,26,3,107,3,776.1172610000067,777.1004401250102,777.1004401250102,777.1004401250102,777.1004401250102,777.1172331249982,778.1003479580104,778.1003479580104,z,1,0.4255429579934571,None,412603,001,2023-10-17_16h54.22.548,sequential_learning_exp,2023.1.3,60.33152146403869,
-150,z,,,,,27,0,108,3,778.5498999580159,779.5339560410066,779.5339560410066,779.5339560410066,779.5339560410066,779.5506598330103,780.5338815000141,780.5338815000141,x,0,0.8290041659784038,None,412603,001,2023-10-17_16h54.22.548,sequential_learning_exp,2023.1.3,60.33152146403869,
150,v,,,,,27,1,109,1,781.3835338750214,782.3840406660165,782.3840406660165,782.3840406660165,782.3840406660165,782.3840406660165,783.3671470830159,783.3671470830159,v,1,0.49289966601645574,None,412603,001,2023-10-17_16h54.22.548,sequential_learning_exp,2023.1.3,60.33152146403869,
150,v,,,,,27,2,110,1,783.8838433330238,784.8674340830185,784.8674340830185,784.8674340830185,784.8674340830185,784.8843555000203,785.8673850000196,785.8673850000196,v,1,0.42780945799313486,None,412603,001,2023-10-17_16h54.22.548,sequential_learning_exp,2023.1.3,60.33152146403869,
150,v,,,,,27,3,111,1,786.3171805410238,787.3175461660139,787.3175461660139,787.3175461660139,787.3175461660139,787.3175461660139,788.30083225001,788.30083225001,v,1,0.5008402499952354,None,412603,001,2023-10-17_16h54.22.548,sequential_learning_exp,2023.1.3,60.33152146403869,
-50,x,,,,,28,0,112,0,788.8335830410069,789.834331541002,789.834331541002,789.834331541002,789.834331541002,789.834331541002,790.8341439580254,790.8341439580254,x,1,0.6650061670225114,None,412603,001,2023-10-17_16h54.22.548,sequential_learning_exp,2023.1.3,60.33152146403869,
50,c,,,,,28,1,113,2,791.5177547500061,792.5178294580255,792.5178294580255,792.5178294580255,792.5178294580255,792.5178294580255,793.5008162500162,793.5008162500162,c,1,0.5479701659933198,None,412603,001,2023-10-17_16h54.22.548,sequential_learning_exp,2023.1.3,60.33152146403869,
-50,x,,,,,28,2,114,0,794.0676621660241,795.0513871660223,795.0513871660223,795.0513871660223,795.0513871660223,795.067724833003,796.0673987080227,796.0673987080227,x,1,0.5827446670155041,None,412603,001,2023-10-17_16h54.22.548,sequential_learning_exp,2023.1.3,60.33152146403869,
150,v,,,,,28,3,115,1,796.6678759159986,797.6513176660228,797.6513176660228,797.6513176660228,797.6513176660228,797.6678101250145,798.6681618750154,798.6681618750154,v,1,0.6557190000021365,None,412603,001,2023-10-17_16h54.22.548,sequential_learning_exp,2023.1.3,60.33152146403869,
-50,x,,,,,29,0,116,0,799.3509771250247,800.3512120830128,800.3512120830128,800.3512120830128,800.3512120830128,800.3512120830128,801.3511833750235,801.3511833750235,x,1,0.3317230000102427,None,412603,001,2023-10-17_16h54.22.548,sequential_learning_exp,2023.1.3,60.33152146403869,
-50,x,,,,,29,1,117,0,801.7012426660222,802.7014739160077,802.7014739160077,802.7014739160077,802.7014739160077,802.7014739160077,803.6847337080108,803.6847337080108,x,1,0.3506370419927407,None,412603,001,2023-10-17_16h54.22.548,sequential_learning_exp,2023.1.3,60.33152146403869,
50,c,,,,,29,2,118,2,804.068034750002,805.0681231660128,805.0681231660128,805.0681231660128,805.0681231660128,805.0681231660128,806.0678904160159,806.0678904160159,c,1,0.668088791979244,None,412603,001,2023-10-17_16h54.22.548,sequential_learning_exp,2023.1.3,60.33152146403869,
150,v,,,,,29,3,119,1,806.7678050410177,807.7516005000216,807.7516005000216,807.7516005000216,807.7516005000216,807.7681184580142,808.7513176659995,808.7513176659995,v,1,0.437543458014261,None,412603,001,2023-10-17_16h54.22.548,sequential_learning_exp,2023.1.3,60.33152146403869,
150,v,,,,,30,0,120,1,809.2179716250103,810.2185459160246,810.2185459160246,810.2185459160246,810.2185459160246,810.2185459160246,811.2178222080111,811.2178222080111,v,1,0.5251644169911742,None,412603,001,2023-10-17_16h54.22.548,sequential_learning_exp,2023.1.3,60.33152146403869,
50,c,,,,,30,1,121,2,811.7686088750197,812.7683442500129,812.7683442500129,812.7683442500129,812.7683442500129,812.7683442500129,813.7513556250196,813.7513556250196,c,1,0.538650750007946,None,412603,001,2023-10-17_16h54.22.548,sequential_learning_exp,2023.1.3,60.33152146403869,
150,v,,,,,30,2,122,1,814.3182544580195,815.3187682080024,815.3187682080024,815.3187682080024,815.3187682080024,815.3187682080024,816.3185700830072,816.3185700830072,v,1,0.4149870419932995,None,412603,001,2023-10-17_16h54.22.548,sequential_learning_exp,2023.1.3,60.33152146403869,
-150,z,,,,,30,3,123,3,816.7516415000136,817.7353945830255,817.7353945830255,817.7353945830255,817.7353945830255,817.7517070830218,818.7350283749984,818.7350283749984,z,1,0.38663195801200345,None,412603,001,2023-10-17_16h54.22.548,sequential_learning_exp,2023.1.3,60.33152146403869,
50,c,,,,,31,0,124,2,819.1520116660104,820.1525976250123,820.1525976250123,820.1525976250123,820.1525976250123,820.1525976250123,821.1348981250194,821.1348981250194,c,1,0.39834529100335203,None,412603,001,2023-10-17_16h54.22.548,sequential_learning_exp,2023.1.3,60.33152146403869,
50,c,,,,,31,1,125,2,821.5519455000176,822.5354073750204,822.5354073750204,822.5354073750204,822.5354073750204,822.552051000006,823.5517499580164,823.5517499580164,c,1,0.4106032910058275,None,412603,001,2023-10-17_16h54.22.548,sequential_learning_exp,2023.1.3,60.33152146403869,
150,v,,,,,31,2,126,1,823.9852003749984,824.9855616660207,824.9855616660207,824.9855616660207,824.9855616660207,824.9855616660207,825.9683605830069,825.9683605830069,v,1,0.3818362909951247,None,412603,001,2023-10-17_16h54.22.548,sequential_learning_exp,2023.1.3,60.33152146403869,
150,v,,,,,31,3,127,1,826.3686841660237,827.3690231250075,827.3690231250075,827.3690231250075,827.3690231250075,827.3690231250075,828.368656458013,828.368656458013,v,1,0.4791167920047883,None,412603,001,2023-10-17_16h54.22.548,sequential_learning_exp,2023.1.3,60.33152146403869,
-150,z,,,,,32,0,128,3,828.8684759160096,829.8688221250195,829.8688221250195,829.8688221250195,829.8688221250195,829.8688221250195,830.8685980000009,830.8685980000009,z,1,0.5065257500100415,None,412603,001,2023-10-17_16h54.22.548,sequential_learning_exp,2023.1.3,60.33152146403869,
50,c,,,,,32,1,129,2,831.401988416008,832.4019700410136,832.4019700410136,832.4019700410136,832.4019700410136,832.4019700410136,833.4019376659999,833.4019376659999,c,1,0.5502516670094337,None,412603,001,2023-10-17_16h54.22.548,sequential_learning_exp,2023.1.3,60.33152146403869,
-150,z,,,,,32,2,130,3,833.9690083330206,834.968864208,834.968864208,834.968864208,834.968864208,834.968864208,835.96900266601,835.96900266601,z,1,0.4596874580020085,None,412603,001,2023-10-17_16h54.22.548,sequential_learning_exp,2023.1.3,60.33152146403869,
-150,z,,,,,32,3,131,3,836.4517967500142,837.4361372910207,837.4361372910207,837.4361372910207,837.4361372910207,837.4525927080249,838.4353234580194,838.4353234580194,z,1,0.420662791992072,None,412603,001,2023-10-17_16h54.22.548,sequential_learning_exp,2023.1.3,60.33152146403869,
-150,z,,,,,33,0,132,3,838.8853594160173,839.8694521660218,839.8694521660218,839.8694521660218,839.8694521660218,839.886181666021,840.8690934580227,840.8690934580227,z,1,0.4420155420084484,None,412603,001,2023-10-17_16h54.22.548,sequential_learning_exp,2023.1.3,60.33152146403869,
50,c,,,,,33,1,133,2,841.3357088750054,842.3194019160001,842.3194019160001,842.3194019160001,842.3194019160001,842.3361905830097,843.3196370410151,843.3196370410151,c,1,0.5834382500033826,None,412603,001,2023-10-17_16h54.22.548,sequential_learning_exp,2023.1.3,60.33152146403869,
-150,z,,,,,33,2,134,3,843.9353730000148,844.9360536660242,844.9360536660242,844.9360536660242,844.9360536660242,844.9360536660242,845.9360507910023,845.9360507910023,z,1,0.4850620409997646,None,412603,001,2023-10-17_16h54.22.548,sequential_learning_exp,2023.1.3,60.33152146403869,
-50,x,,,,,33,3,135,0,846.4523534160107,847.4528559580212,847.4528559580212,847.4528559580212,847.4528559580212,847.4528559580212,848.4358997500094,848.4358997500094,x,1,0.5739419999881648,None,412603,001,2023-10-17_16h54.22.548,sequential_learning_exp,2023.1.3,60.33152146403869,
50,c,,,,,34,0,136,2,849.036132875015,850.0197070830036,850.0197070830036,850.0197070830036,850.0197070830036,850.0363085830177,851.0195504580042,851.0195504580042,c,1,0.4435436670028139,None,412603,001,2023-10-17_16h54.22.548,sequential_learning_exp,2023.1.3,60.33152146403869,
50,c,,,,,34,1,137,2,851.4859183750232,852.4695686250052,852.4695686250052,852.4695686250052,852.4695686250052,852.4859711660247,853.4695492080064,853.4695492080064,c,1,0.4681208750116639,None,412603,001,2023-10-17_16h54.22.548,sequential_learning_exp,2023.1.3,60.33152146403869,
-150,z,,,,,34,2,138,3,853.9693968750071,854.9697326250025,854.9697326250025,854.9697326250025,854.9697326250025,854.9697326250025,855.96959350002,855.96959350002,z,1,0.5359973329759669,None,412603,001,2023-10-17_16h54.22.548,sequential_learning_exp,2023.1.3,60.33152146403869,
50,c,,,,,34,3,139,2,856.5361170830147,857.5361389160098,857.5361389160098,857.5361389160098,857.5361389160098,857.5361389160098,858.5195412910252,858.5195412910252,c,1,0.5217235409945715,None,412603,001,2023-10-17_16h54.22.548,sequential_learning_exp,2023.1.3,60.33152146403869,
50,c,,,,,35,0,140,2,859.0695047080226,860.0533365410229,860.0533365410229,860.0533365410229,860.0533365410229,860.0699962080107,861.0533751659968,861.0533751659968,c,1,0.3979764999821782,None,412603,001,2023-10-17_16h54.22.548,sequential_learning_exp,2023.1.3,60.33152146403869,
150,v,,,,,35,1,141,1,861.4690924580209,862.4701127080189,862.4701127080189,862.4701127080189,862.4701127080189,862.4701127080189,863.4532257080136,863.4532257080136,v,1,0.40817937499377877,None,412603,001,2023-10-17_16h54.22.548,sequential_learning_exp,2023.1.3,60.33152146403869,
150,v,,,,,35,2,142,1,863.8861452499987,864.869748750003,864.869748750003,864.869748750003,864.869748750003,864.8863729580189,865.8699608330207,865.8699608330207,v,1,0.4610293330042623,None,412603,001,2023-10-17_16h54.22.548,sequential_learning_exp,2023.1.3,60.33152146403869,
-50,x,,,,,35,3,143,0,866.3533860000025,867.354480250011,867.354480250011,867.354480250011,867.354480250011,867.354480250011,868.3366692910204,868.3366692910204,x,1,0.5942448749847244,None,412603,001,2023-10-17_16h54.22.548,sequential_learning_exp,2023.1.3,60.33152146403869,
-150,z,,,,,36,0,144,3,868.9531562080083,869.9372290000028,869.9372290000028,869.9372290000028,869.9372290000028,869.9535144999973,870.9367075409973,870.9367075409973,z,1,0.43950945799588226,None,412603,001,2023-10-17_16h54.22.548,sequential_learning_exp,2023.1.3,60.33152146403869,
-50,x,,,,,36,1,145,0,871.4031967080082,872.403599000012,872.403599000012,872.403599000012,872.403599000012,872.403599000012,873.3870105410169,873.3870105410169,x,1,1.38611929200124,None,412603,001,2023-10-17_16h54.22.548,sequential_learning_exp,2023.1.3,60.33152146403869,
-50,x,,,,,36,2,146,0,874.8031086249975,875.8033671660232,875.8033671660232,875.8033671660232,875.8033671660232,875.8033671660232,876.7863790410047,876.7863790410047,x,1,0.4986075419874396,None,412603,001,2023-10-17_16h54.22.548,sequential_learning_exp,2023.1.3,60.33152146403869,
150,v,,,,,36,3,147,1,877.3036157500173,878.3036621659994,878.3036621659994,878.3036621659994,878.3036621659994,878.3036621659994,879.3040388330119,879.3040388330119,v,1,0.44007650000276044,None,412603,001,2023-10-17_16h54.22.548,sequential_learning_exp,2023.1.3,60.33152146403869,
-150,z,,,,,37,0,148,3,879.7702568750246,880.7536467080063,880.7536467080063,880.7536467080063,880.7536467080063,880.7705438330013,881.753642458003,881.753642458003,x,0,0.30390812500263564,None,412603,001,2023-10-17_16h54.22.548,sequential_learning_exp,2023.1.3,60.33152146403869,
-50,x,,,,,37,1,149,0,882.0869426249992,883.0872951250058,883.0872951250058,883.0872951250058,883.0872951250058,883.0872951250058,884.0704024160223,884.0704024160223,x,1,0.4730078339925967,None,412603,001,2023-10-17_16h54.22.548,sequential_learning_exp,2023.1.3,60.33152146403869,
-50,x,,,,,37,2,150,0,884.5704270830029,885.5703918750223,885.5703918750223,885.5703918750223,885.5703918750223,885.5703918750223,886.5706390000123,886.5706390000123,x,1,0.39460924998275004,None,412603,001,2023-10-17_16h54.22.548,sequential_learning_exp,2023.1.3,60.33152146403869,
50,c,,,,,37,3,151,2,886.986919500021,887.970824916003,887.970824916003,887.970824916003,887.970824916003,887.9873366660031,888.9703857910063,888.9703857910063,c,1,0.5288148330000695,None,412603,001,2023-10-17_16h54.22.548,sequential_learning_exp,2023.1.3,60.33152146403869,
50,c,,,,,38,0,152,2,889.5201346660033,890.5209679999971,890.5209679999971,890.5209679999971,890.5209679999971,890.5209679999971,891.5036356250057,891.5036356250057,c,1,0.38212112500332296,None,412603,001,2023-10-17_16h54.22.548,sequential_learning_exp,2023.1.3,60.33152146403869,
-150,z,,,,,38,1,153,3,891.903822332999,892.8873887910158,892.8873887910158,892.8873887910158,892.8873887910158,892.9042860830086,893.8871297080186,893.8871297080186,z,1,0.41967412500525825,None,412603,001,2023-10-17_16h54.22.548,sequential_learning_exp,2023.1.3,60.33152146403869,
50,c,,,,,38,2,154,2,894.3371697500115,895.3213309160201,895.3213309160201,895.3213309160201,895.3213309160201,895.3373014579993,896.3206876660115,896.3206876660115,c,1,0.6485071660135873,None,412603,001,2023-10-17_16h54.22.548,sequential_learning_exp,2023.1.3,60.33152146403869,
